,aa,ab,ac,ad,ae,af,ag,ah,ai,aj,ak,al,am,an,ao,ap,aq,ar,as,at,au,av,aw,ax,ay,az,a ,ba,bb,bc,bd,be,bf,bg,bh,bi,bj,bk,bl,bm,bn,bo,bp,bq,br,bs,bt,bu,bv,bw,bx,by,bz,b ,ca,cb,cc,cd,ce,cf,cg,ch,ci,cj,ck,cl,cm,cn,co,cp,cq,cr,cs,ct,cu,cv,cw,cx,cy,cz,c ,da,db,dc,dd,de,df,dg,dh,di,dj,dk,dl,dm,dn,do,dp,dq,dr,ds,dt,du,dv,dw,dx,dy,dz,d ,ea,eb,ec,ed,ee,ef,eg,eh,ei,ej,ek,el,em,en,eo,ep,eq,er,es,et,eu,ev,ew,ex,ey,ez,e ,fa,fb,fc,fd,fe,ff,fg,fh,fi,fj,fk,fl,fm,fn,fo,fp,fq,fr,fs,ft,fu,fv,fw,fx,fy,fz,f ,ga,gb,gc,gd,ge,gf,gg,gh,gi,gj,gk,gl,gm,gn,go,gp,gq,gr,gs,gt,gu,gv,gw,gx,gy,gz,g ,ha,hb,hc,hd,he,hf,hg,hh,hi,hj,hk,hl,hm,hn,ho,hp,hq,hr,hs,ht,hu,hv,hw,hx,hy,hz,h ,ia,ib,ic,id,ie,if,ig,ih,ii,ij,ik,il,im,in,io,ip,iq,ir,is,it,iu,iv,iw,ix,iy,iz,i ,ja,jb,jc,jd,je,jf,jg,jh,ji,jj,jk,jl,jm,jn,jo,jp,jq,jr,js,jt,ju,jv,jw,jx,jy,jz,j ,ka,kb,kc,kd,ke,kf,kg,kh,ki,kj,kk,kl,km,kn,ko,kp,kq,kr,ks,kt,ku,kv,kw,kx,ky,kz,k ,la,lb,lc,ld,le,lf,lg,lh,li,lj,lk,ll,lm,ln,lo,lp,lq,lr,ls,lt,lu,lv,lw,lx,ly,lz,l ,ma,mb,mc,md,me,mf,mg,mh,mi,mj,mk,ml,mm,mn,mo,mp,mq,mr,ms,mt,mu,mv,mw,mx,my,mz,m ,na,nb,nc,nd,ne,nf,ng,nh,ni,nj,nk,nl,nm,nn,no,np,nq,nr,ns,nt,nu,nv,nw,nx,ny,nz,n ,oa,ob,oc,od,oe,of,og,oh,oi,oj,ok,ol,om,on,oo,op,oq,or,os,ot,ou,ov,ow,ox,oy,oz,o ,pa,pb,pc,pd,pe,pf,pg,ph,pi,pj,pk,pl,pm,pn,po,pp,pq,pr,ps,pt,pu,pv,pw,px,py,pz,p ,qa,qb,qc,qd,qe,qf,qg,qh,qi,qj,qk,ql,qm,qn,qo,qp,qq,qr,qs,qt,qu,qv,qw,qx,qy,qz,q ,ra,rb,rc,rd,re,rf,rg,rh,ri,rj,rk,rl,rm,rn,ro,rp,rq,rr,rs,rt,ru,rv,rw,rx,ry,rz,r ,sa,sb,sc,sd,se,sf,sg,sh,si,sj,sk,sl,sm,sn,so,sp,sq,sr,ss,st,su,sv,sw,sx,sy,sz,s ,ta,tb,tc,td,te,tf,tg,th,ti,tj,tk,tl,tm,tn,to,tp,tq,tr,ts,tt,tu,tv,tw,tx,ty,tz,t ,ua,ub,uc,ud,ue,uf,ug,uh,ui,uj,uk,ul,um,un,uo,up,uq,ur,us,ut,uu,uv,uw,ux,uy,uz,u ,va,vb,vc,vd,ve,vf,vg,vh,vi,vj,vk,vl,vm,vn,vo,vp,vq,vr,vs,vt,vu,vv,vw,vx,vy,vz,v ,wa,wb,wc,wd,we,wf,wg,wh,wi,wj,wk,wl,wm,wn,wo,wp,wq,wr,ws,wt,wu,wv,ww,wx,wy,wz,w ,xa,xb,xc,xd,xe,xf,xg,xh,xi,xj,xk,xl,xm,xn,xo,xp,xq,xr,xs,xt,xu,xv,xw,xx,xy,xz,x ,ya,yb,yc,yd,ye,yf,yg,yh,yi,yj,yk,yl,ym,yn,yo,yp,yq,yr,ys,yt,yu,yv,yw,yx,yy,yz,y ,za,zb,zc,zd,ze,zf,zg,zh,zi,zj,zk,zl,zm,zn,zo,zp,zq,zr,zs,zt,zu,zv,zw,zx,zy,zz,z , a, b, c, d, e, f, g, h, i, j, k, l, m, n, o, p, q, r, s, t, u, v, w, x, y, z,  
aa,0.0,0.0,0.0,0.0,0.0,0.0,0.0,0.0,0.0,0.0,0.0,0.0,0.0,0.0,0.0,0.0,0.0,0.0,0.0,0.0,0.0,0.0,0.0,0.0,0.0,0.0,0.0,0.0,0.0,0.0,0.0,0.0,0.0,0.0,0.0,0.0,0.0,0.0,0.0,0.0,0.0,0.0,0.0,0.0,0.0,0.0,0.0,0.0,0.0,0.0,0.0,0.0,0.0,0.0,0.0,0.0,0.0,0.0,0.0,0.0,0.0,0.0,0.0,0.0,0.0,0.0,0.0,0.0,0.0,0.0,0.0,0.0,0.0,0.0,0.0,0.0,0.0,0.0,0.0,0.0,0.0,0.0,0.0,0.0,0.0,0.0,0.0,0.0,0.0,0.0,0.0,0.0,0.0,0.0,0.0,0.0,0.0,0.0,0.0,0.0,0.0,0.0,0.0,0.0,0.0,0.0,0.0,0.0,0.0,0.0,0.0,0.0,0.0,0.0,0.0,0.0,0.0,0.0,0.0,0.0,0.0,0.0,0.0,0.0,0.0,0.0,0.0,0.0,0.0,0.0,0.0,0.0,0.0,0.0,0.0,0.0,0.0,0.0,0.0,0.0,0.0,0.0,0.0,0.0,0.0,0.0,0.0,0.0,0.0,0.0,0.0,0.0,0.0,0.0,0.0,0.0,0.0,0.0,0.0,0.0,0.0,0.0,0.0,0.0,0.0,0.0,0.0,0.0,0.0,0.0,0.0,0.0,0.0,0.0,0.0,0.0,0.0,0.0,0.0,0.0,0.0,0.0,0.0,0.0,0.0,0.0,0.0,0.0,0.0,0.0,0.0,0.0,0.0,0.0,0.0,0.0,0.0,0.0,0.0,0.0,0.0,0.0,0.0,0.0,0.0,0.0,0.0,0.0,0.0,0.0,0.0,0.0,0.0,0.0,0.0,0.0,0.0,0.0,0.0,0.0,0.0,0.0,0.0,0.0,0.0,0.0,0.0,0.0,0.0,0.0,0.0,0.0,0.0,0.0,0.0,0.0,0.0,0.0,0.0,0.0,0.0,0.0,0.0,0.0,0.0,0.0,0.0,0.0,0.0,0.0,0.0,0.0,0.0,0.0,0.0,0.0,0.0,0.0,0.0,0.0,0.0,0.0,0.0,0.0,0.0,0.0,0.0,0.0,0.0,0.0,0.0,0.0,0.0,0.0,0.0,0.0,0.0,0.0,0.0,0.0,0.0,0.0,0.0,0.0,0.0,0.0,0.0,0.0,0.0,0.0,0.0,0.0,0.0,0.0,0.0,0.0,0.0,0.0,0.0,0.0,0.0,0.0,0.0,0.0,0.0,0.0,0.0,0.0,0.0,0.0,0.0,0.0,0.0,0.0,0.0,0.0,0.0,0.0,0.0,0.0,0.0,0.0,0.0,0.0,0.0,0.0,0.0,0.0,0.0,0.0,0.0,0.0,0.0,0.0,0.0,0.0,0.0,0.0,0.0,0.0,0.0,0.0,0.0,0.0,0.0,0.0,0.0,0.0,0.0,0.0,0.0,0.0,0.0,0.0,0.0,0.0,0.0,0.0,0.0,0.0,0.0,0.0,0.0,0.0,0.0,0.0,0.0,0.0,0.0,0.0,0.0,0.0,0.0,0.0,0.0,0.0,0.0,0.0,0.0,0.0,0.0,0.0,0.0,0.0,0.0,0.0,0.0,0.0,0.0,0.0,0.0,0.0,0.0,0.0,0.0,0.0,0.0,0.0,0.0,0.0,0.0,0.0,0.0,0.0,0.0,0.0,0.0,0.0,0.0,0.0,0.0,0.0,0.0,0.0,0.0,0.0,0.0,0.0,0.0,0.0,0.0,0.0,0.0,0.0,0.0,0.0,0.0,0.0,0.0,0.0,0.0,0.0,0.0,0.0,0.0,0.0,0.0,0.0,0.0,0.0,0.0,0.0,0.0,0.0,0.0,0.0,0.0,0.0,0.0,0.0,0.0,0.0,0.0,0.0,0.0,0.0,0.0,0.0,0.0,0.0,0.0,0.0,0.0,0.0,0.0,0.0,0.0,0.0,0.0,0.0,0.0,0.0,0.0,0.962962962963,0.0,0.0,0.0,0.0,0.0,0.0,0.0,0.0,0.0,0.0,0.0,0.0,0.0,0.0,0.0,0.0,0.0,0.0,0.0,0.0,0.0,0.0,0.0,0.0,0.0,0.0,0.0,0.0,0.0,0.0,0.0,0.0,0.0,0.0,0.0,0.0,0.0,0.0,0.0,0.0,0.0,0.0,0.0,0.0,0.0,0.0,0.0,0.0,0.0,0.0,0.0,0.0,0.0,0.0,0.0,0.0,0.0,0.0,0.0,0.0,0.0,0.0,0.0,0.0,0.0,0.0,0.0,0.0,0.0,0.0,0.0,0.0,0.0,0.0,0.0,0.0,0.0,0.0,0.0,0.0,0.0,0.0,0.0,0.0,0.0,0.0,0.0,0.0,0.0,0.0,0.0,0.0,0.0,0.0,0.0,0.0,0.0,0.0,0.0,0.0,0.0,0.0,0.0,0.0,0.0,0.0,0.0,0.0,0.0,0.0,0.0,0.0,0.0,0.0,0.0,0.0,0.0,0.0,0.0,0.0,0.0,0.0,0.0,0.0,0.0,0.0,0.0,0.0,0.0,0.0,0.0,0.0,0.0,0.0,0.0,0.0,0.0,0.0,0.0,0.0,0.0,0.0,0.0,0.0,0.0,0.0,0.0,0.0,0.0,0.0,0.0,0.0,0.0,0.0,0.0,0.0,0.0,0.0,0.0,0.0,0.0,0.0,0.0,0.0,0.0,0.0,0.0,0.0,0.0,0.0,0.0,0.0,0.0,0.0,0.0,0.0,0.0,0.0,0.0,0.0,0.0,0.0,0.0,0.0,0.0,0.0,0.0,0.0,0.0,0.0,0.0,0.0,0.0,0.0,0.0,0.0,0.0,0.0,0.0,0.0,0.0,0.0,0.0,0.0,0.0,0.0,0.0,0.0,0.0,0.0,0.0,0.0,0.0,0.0,0.0,0.0,0.0,0.0,0.0,0.0,0.0,0.0,0.0,0.0,0.0,0.0,0.0,0.0,0.0,0.037037037037,0.0,0.0,0.0,0.0,0.0,0.0,0.0,0.0,0.0,0.0,0.0,0.0,0.0,0.0,0.0,0.0,0.0,0.0,0.0,0.0,0.0,0.0,0.0,0.0,0.0
ab,0.0,0.0,0.0,0.0,0.0,0.0,0.0,0.0,0.000376789751319,0.0,0.0,0.0,0.0,0.0101733232856,0.0,0.0,0.0,0.0,0.00226073850791,0.00904295403165,0.0,0.0,0.0,0.0,0.0,0.0,0.000376789751319,0.00301431801055,0.0,0.0,0.00640542577242,0.0113036925396,0.0,0.0,0.0,0.00339110776187,0.0,0.0,0.0139412207988,0.0,0.0,0.00188394875659,0.0,0.0,0.000376789751319,0.0,0.0,0.0,0.0,0.0,0.0,0.0,0.0,0.0,0.0,0.0,0.0,0.0,0.0,0.0,0.0,0.0,0.0,0.0,0.0,0.0,0.0,0.0,0.0,0.0,0.0,0.0,0.0,0.0,0.0,0.0,0.0,0.0,0.0,0.0,0.0,0.0,0.0,0.0,0.0,0.0,0.0,0.0,0.0,0.0,0.0,0.0,0.0,0.0,0.0,0.0,0.0,0.0,0.0,0.000376789751319,0.0,0.0,0.0,0.0,0.0,0.0,0.0,0.0,0.0,0.0,0.0,0.00489826676714,0.0,0.0,0.0,0.0,0.0,0.0,0.0,0.016578749058,0.0,0.0,0.000376789751319,0.0,0.0,0.00301431801055,0.00904295403165,0.00339110776187,0.0,0.0,0.0,0.0,0.0,0.0,0.0146948003014,0.0,0.0,0.0,0.0,0.0,0.0,0.0,0.0,0.0,0.0,0.0,0.0,0.0,0.0,0.0,0.0,0.0,0.0,0.0,0.0,0.0,0.0,0.0,0.0,0.0,0.0,0.0,0.0,0.0,0.0,0.0,0.0,0.0,0.0,0.0,0.0,0.0,0.0,0.0,0.0,0.0,0.0,0.0,0.0,0.0,0.0,0.0,0.0,0.0,0.0,0.0,0.0,0.0,0.0,0.0,0.0,0.0,0.0,0.0,0.0,0.0,0.0,0.0,0.0,0.0,0.0,0.0,0.0,0.0184626978146,0.0,0.0,0.0,0.0,0.0,0.0,0.0,0.0,0.0,0.0,0.0,0.0,0.00565184626978,0.0,0.0,0.0162019593067,0.00150715900528,0.0,0.0,0.0,0.0,0.0,0.0,0.0105501130369,0.0,0.00414468726451,0.0,0.0,0.0,0.00150715900528,0.0,0.025998492841,0.0,0.0,0.0,0.0,0.0,0.0,0.0,0.0,0.0,0.0,0.0,0.00527505651846,0.0,0.0,0.0,0.0,0.0,0.0,0.0,0.0,0.0,0.0,0.0,0.0,0.0,0.0,0.0,0.00226073850791,0.0,0.0,0.0,0.0,0.0,0.0,0.0,0.0,0.0,0.0,0.0,0.0,0.0,0.0,0.0,0.0,0.0,0.0,0.0,0.0,0.0,0.0,0.0,0.0,0.0,0.0,0.0,0.0,0.0,0.0,0.0,0.0,0.0,0.0,0.0,0.0,0.0,0.312358703843,0.0,0.0,0.0,0.00565184626978,0.0,0.0,0.0,0.0,0.0,0.000376789751319,0.0,0.0,0.0,0.0,0.0,0.0,0.0,0.0,0.0,0.0113036925396,0.0,0.0,0.0,0.0,0.0,0.0,0.0,0.0,0.0,0.0,0.0,0.0,0.0,0.0,0.0,0.0,0.0,0.0,0.0,0.0,0.0,0.0,0.0,0.0,0.0,0.0,0.0,0.0,0.0,0.0,0.0,0.0,0.0,0.0,0.0,0.0,0.0,0.0,0.0,0.0,0.0,0.0,0.0,0.0,0.0,0.0,0.0,0.0,0.0,0.0,0.0,0.0,0.0,0.0,0.0,0.0,0.0131876412962,0.0,0.0,0.00452147701583,0.0,0.0,0.0,0.0,0.0,0.0,0.0,0.0,0.00678221552374,0.00188394875659,0.00226073850791,0.0,0.0,0.00565184626978,0.0,0.0,0.21137905049,0.0467219291635,0.0,0.0,0.000376789751319,0.0,0.0,0.0,0.0,0.0,0.0,0.0,0.0,0.0,0.0,0.0,0.0,0.0,0.0,0.0,0.0,0.0,0.0,0.0,0.0,0.0,0.0,0.0,0.0,0.0,0.0,0.0,0.0,0.0,0.0,0.0,0.0,0.0,0.0,0.0,0.0,0.0,0.0,0.0,0.0,0.0,0.0,0.0,0.0,0.0,0.0,0.0,0.0,0.0,0.0,0.0,0.0,0.0,0.0,0.0,0.0,0.00339110776187,0.0,0.0,0.0,0.00263752825923,0.0,0.0,0.0,0.00527505651846,0.0,0.0,0.0,0.0,0.0,0.0244913338357,0.0,0.0,0.0,0.0,0.0,0.00113036925396,0.0,0.0,0.0,0.0,0.0,0.0,0.0,0.0,0.0,0.0,0.0308967596081,0.0,0.0,0.0,0.0,0.0,0.0,0.0,0.0,0.0,0.0143180105501,0.0,0.000376789751319,0.0,0.0,0.00452147701583,0.00150715900528,0.0,0.0,0.0,0.000376789751319,0.0,0.00339110776187,0.0,0.0,0.0,0.0,0.0,0.0,0.0,0.0,0.0,0.0,0.0,0.0,0.0,0.0,0.0,0.0,0.0,0.00113036925396,0.0,0.0,0.0,0.0,0.0,0.0,0.0,0.0,0.0,0.0,0.0,0.0,0.0,0.0,0.0,0.0,0.0,0.0,0.0,0.0,0.000753579502638,0.0,0.00527505651846,0.0,0.0,0.0,0.0,0.0395629238885,0.000753579502638,0.0,0.0,0.0,0.0,0.0,0.0,0.0,0.0,0.0,0.0,0.0,0.0,0.0,0.0,0.0,0.0,0.0,0.0,0.0,0.0,0.0,0.0,0.0,0.0,0.0,0.0,0.0,0.0,0.0,0.0,0.0,0.0,0.0,0.0,0.0,0.0,0.0,0.0,0.0,0.0,0.0,0.0,0.0,0.0,0.0,0.0,0.0,0.0,0.0,0.0,0.0,0.0,0.0,0.0,0.0,0.0,0.0,0.0,0.0,0.0,0.0,0.0,0.0,0.0,0.0,0.0,0.0,0.0,0.0,0.0,0.0,0.0,0.0,0.0,0.0,0.0,0.0,0.0,0.0,0.0,0.0,0.0,0.0,0.0,0.0,0.0,0.0,0.0,0.0,0.0,0.0,0.0,0.0,0.0,0.0,0.0,0.0,0.0,0.0,0.00113036925396,0.0,0.0,0.0,0.0,0.0,0.000753579502638,0.00113036925396,0.0,0.0,0.0,0.0,0.0,0.0,0.0,0.00941974378297,0.0,0.0,0.0,0.0,0.0,0.0,0.0,0.0,0.0,0.0,0.0,0.0,0.0,0.0,0.0,0.0,0.0,0.0,0.0,0.0,0.0,0.0,0.0,0.0,0.0,0.0,0.0,0.00376789751319,0.0,0.0,0.000376789751319,0.0,0.000376789751319,0.0,0.00301431801055,0.00113036925396,0.0,0.0,0.000376789751319,0.00113036925396,0.000376789751319,0.00226073850791,0.000376789751319,0.0,0.0,0.0,0.00226073850791,0.00188394875659,0.0,0.00113036925396,0.0,0.000376789751319,0.0,0.0
ac,0.0,0.000143102461362,0.0,0.000429307384087,0.0,0.0,0.0,0.0,0.0,0.0,0.0,0.0,0.0,0.00128792215226,0.0,0.000286204922725,0.0,0.0,0.0,0.000143102461362,0.0,0.0,0.0,0.0,0.0,0.0,0.000286204922725,0.0,0.0,0.0,0.0,0.00615340583858,0.0,0.0,0.0,0.0,0.0,0.0,0.0,0.0,0.0,0.0,0.0,0.0,0.0,0.0,0.0,0.0,0.0,0.0,0.0,0.0,0.0,0.0,0.000715512306812,0.0,0.0,0.0,0.0131654264453,0.0,0.0,0.000572409845449,0.00615340583858,0.0,0.0,0.000143102461362,0.0,0.0,0.0267601602748,0.0,0.0,0.000143102461362,0.0,0.0,0.0206067544362,0.0,0.0,0.0,0.0,0.0,0.0,0.0,0.0,0.0,0.0,0.0,0.0,0.0,0.0,0.0,0.0,0.0,0.0,0.0,0.0,0.000143102461362,0.0,0.0,0.0,0.0,0.0,0.0022896393818,0.0,0.0,0.0,0.0,0.0,0.0144533485976,0.00100171722954,0.000143102461362,0.0,0.00787063537493,0.0,0.00286204922725,0.0,0.0,0.0,0.0,0.0,0.00171722953635,0.00186033199771,0.000572409845449,0.0,0.000143102461362,0.0,0.000715512306812,0.0267601602748,0.000286204922725,0.0,0.0,0.0,0.0,0.0,0.0,0.325414997138,0.0,0.0,0.0,0.0,0.0,0.0,0.0,0.0,0.0,0.0,0.0,0.0,0.0,0.0,0.0,0.0,0.0,0.0,0.0,0.0,0.0,0.0,0.0,0.0,0.0,0.0,0.0,0.0,0.0,0.0,0.0,0.0,0.0,0.0,0.0,0.0,0.0,0.0,0.0,0.0,0.0,0.0,0.0,0.0,0.0,0.0,0.0,0.0,0.0,0.0,0.0,0.0,0.0,0.0,0.000143102461362,0.0,0.000286204922725,0.00286204922725,0.0246136233543,0.000572409845449,0.0,0.0,0.0237550085861,0.0,0.0,0.0,0.00128792215226,0.000143102461362,0.0,0.0,0.000143102461362,0.000143102461362,0.00214653692044,0.0,0.00100171722954,0.0,0.0,0.0,0.000286204922725,0.0,0.0819977103606,0.000858614768174,0.0,0.0,0.000286204922725,0.000429307384087,0.000429307384087,0.0,0.0,0.0,0.0,0.0,0.000572409845449,0.0,0.00214653692044,0.0326273611906,0.0,0.0,0.0,0.0,0.00243274184316,0.0,0.0,0.0,0.0,0.0,0.0,0.0,0.0,0.0,0.0,0.0,0.0,0.0,0.0,0.0,0.0,0.0,0.0,0.0,0.0,0.0,0.0,0.0,0.0,0.0,0.0,0.0,0.0,0.0,0.0,0.0,0.0,0.0,0.0,0.00157412707499,0.00157412707499,0.000429307384087,0.0108757870635,0.00930165998855,0.000429307384087,0.0,0.000572409845449,0.00386376645678,0.0,0.0,0.00271894676588,0.000286204922725,0.00472238122496,0.000286204922725,0.0,0.0,0.000143102461362,0.0100171722954,0.000429307384087,0.0,0.0,0.00314825414997,0.0,0.0,0.0,0.133657698912,0.0,0.0,0.0,0.0,0.0135947338294,0.0,0.0,0.0,0.0,0.0,0.0,0.0,0.0,0.0,0.0,0.0,0.0,0.0,0.0,0.0,0.0,0.0,0.0,0.0,0.0,0.0,0.0,0.0,0.0,0.0,0.0,0.0,0.0,0.0,0.0,0.0,0.0,0.0,0.0,0.0,0.0,0.000858614768174,0.0,0.0,0.0,0.0,0.0,0.0,0.0,0.0,0.0,0.0,0.0,0.0,0.0,0.0,0.0,0.0,0.0,0.0,0.0,0.0,0.0,0.0,0.0,0.0,0.0,0.0,0.0,0.0,0.0,0.0,0.0,0.0,0.0,0.0,0.0,0.0,0.0,0.0,0.0,0.000715512306812,0.0011448196909,0.000858614768174,0.000143102461362,0.0,0.0,0.0,0.0,0.0,0.0,0.0,0.000715512306812,0.000143102461362,0.00157412707499,0.0,0.0,0.0,0.00100171722954,0.0,0.0,0.0,0.0,0.0,0.0,0.0,0.0,0.0,0.0,0.0,0.0,0.0,0.0,0.0,0.0,0.0,0.0,0.0,0.0,0.0,0.0,0.0,0.0,0.0,0.0,0.0,0.0,0.0,0.0,0.0,0.0,0.0,0.0,0.0,0.0,0.0,0.0,0.0,0.0,0.0,0.0,0.0,0.0,0.0,0.0,0.0,0.0,0.0,0.0,0.0,0.0,0.0,0.0,0.0,0.0,0.0176016027476,0.0,0.0,0.0,0.0,0.0,0.0,0.0011448196909,0.0,0.0,0.0,0.0087292501431,0.0,0.0,0.0,0.00586720091586,0.0,0.0,0.0,0.0,0.0,0.000858614768174,0.0,0.0,0.0,0.0,0.0,0.0,0.0,0.0,0.0,0.0,0.0,0.0,0.0,0.0,0.0,0.0,0.0,0.0,0.0,0.0,0.0,0.0,0.0,0.0,0.0,0.0,0.0,0.0,0.0,0.0,0.0,0.0,0.0,0.0,0.0,0.0,0.0,0.0,0.000286204922725,0.000858614768174,0.0,0.0,0.0,0.0103033772181,0.0,0.0,0.0,0.0532341156268,0.0,0.0,0.000858614768174,0.0,0.0,0.00529479107041,0.0,0.0,0.0,0.00472238122496,0.0,0.000429307384087,0.0,0.0,0.0,0.0,0.0,0.0300515168861,0.0,0.0,0.000143102461362,0.0,0.0,0.0,0.0,0.0,0.0,0.0,0.0,0.00286204922725,0.0,0.0,0.0,0.0,0.0,0.000143102461362,0.00200343445907,0.000572409845449,0.0,0.0,0.0,0.0,0.0,0.0,0.0,0.0,0.0,0.0,0.0,0.0,0.0,0.0,0.0,0.0,0.0,0.0,0.0,0.0,0.0,0.0,0.0,0.0,0.0,0.0,0.0,0.0,0.0,0.0,0.0,0.0,0.0,0.0,0.0,0.0,0.0,0.0,0.0,0.0,0.0,0.0,0.0,0.0,0.0,0.0,0.0,0.0,0.0,0.0,0.0,0.0,0.0,0.0,0.0,0.0,0.0,0.0,0.0,0.0,0.0,0.0,0.0,0.0,0.0,0.0,0.0,0.0,0.0,0.0,0.0,0.0,0.0,0.0,0.0,0.0,0.0,0.0,0.0,0.0,0.0,0.0,0.0,0.0,0.0,0.0,0.0,0.0,0.0,0.0,0.0,0.0,0.0,0.0,0.0,0.0,0.0,0.0,0.0,0.0,0.0,0.0,0.0,0.0,0.0,0.0,0.0,0.0,0.0,0.0,0.0,0.0,0.0,0.0,0.00572409845449,0.0,0.0,0.0,0.0,0.0,0.0,0.0,0.0,0.0,0.0,0.0,0.0,0.0,0.0,0.0,0.0,0.0,0.0,0.0,0.0,0.0,0.0,0.0,0.0,0.0,0.0,0.0,0.0,0.0,0.0,0.0,0.0,0.0,0.0,0.0,0.000715512306812,0.0,0.0,0.0,0.000143102461362,0.000143102461362,0.0,0.0,0.0,0.0,0.000143102461362,0.0,0.0,0.0,0.0,0.0,0.0,0.0,0.0
ad,0.0,0.0,0.0,0.0,0.0,0.0,0.000220191566663,0.0,0.0,0.0,0.0,0.000110095783331,0.061433447099,0.0,0.0,0.0,0.0,0.0,0.0,0.000220191566663,0.0,0.0,0.0,0.0,0.000990862049983,0.0,0.0,0.000220191566663,0.0,0.0,0.0,0.0,0.0,0.0,0.0,0.0,0.0,0.0,0.0,0.0,0.0,0.000110095783331,0.0,0.0,0.000550478916657,0.0,0.0,0.0,0.0,0.0,0.0,0.0,0.0,0.0,0.00077067048332,0.0,0.0,0.0,0.0,0.0,0.0,0.000110095783331,0.0,0.0,0.0,0.0,0.0,0.0,0.0,0.0,0.0,0.0,0.0,0.0,0.0,0.0,0.0,0.0,0.0,0.0,0.0,0.0,0.0,0.0,0.0,0.00737641748321,0.0,0.0,0.0,0.00561488494991,0.0,0.0,0.00242210723329,0.0,0.0,0.000220191566663,0.0,0.0,0.00231201144996,0.000550478916657,0.0,0.0,0.0,0.0,0.0,0.0,0.0,0.00484421446659,0.0,0.0,0.0,0.00869756688319,0.0,0.000110095783331,0.0,0.0,0.000110095783331,0.0,0.0,0.000990862049983,0.0017615325333,0.00297258614995,0.0,0.0,0.0,0.00319277771661,0.00638555543323,0.0,0.000110095783331,0.0,0.0,0.0,0.000110095783331,0.0,0.116811626115,0.000330287349994,0.0,0.0,0.0,0.0,0.0,0.0,0.0,0.0,0.0,0.0,0.0,0.0,0.0,0.0,0.0,0.0,0.000110095783331,0.0,0.0,0.00682593856655,0.0,0.0,0.0,0.0,0.0,0.0,0.0,0.0,0.0,0.000110095783331,0.0020918198833,0.0,0.0,0.0,0.0,0.0,0.0,0.0,0.0,0.0,0.0,0.0,0.0,0.0,0.0,0.0,0.0,0.0,0.0,0.0,0.0,0.0,0.0,0.0,0.0,0.0,0.0,0.000880766266652,0.0,0.0,0.0,0.0,0.0,0.0,0.0,0.0,0.0,0.0,0.0,0.0,0.0,0.0,0.0,0.0,0.0,0.0,0.0,0.0,0.0,0.0,0.00110095783331,0.0,0.00132114939998,0.0,0.0242210723329,0.0,0.0,0.0,0.0,0.0,0.0,0.000110095783331,0.0,0.00847737531653,0.000220191566663,0.0,0.0,0.0,0.00143124518331,0.000440383133326,0.0,0.0,0.0,0.0,0.0,0.0,0.0,0.000220191566663,0.0,0.0,0.0,0.0,0.0,0.0,0.0,0.0,0.0,0.0,0.0,0.0,0.0,0.000440383133326,0.0,0.0,0.0,0.0,0.0,0.00077067048332,0.0,0.0,0.0,0.0,0.0,0.0,0.0,0.0,0.0,0.0,0.0,0.0,0.0,0.0,0.000110095783331,0.0,0.0,0.0,0.0,0.0,0.0,0.0,0.0,0.0,0.0,0.0,0.0,0.0,0.0,0.0,0.0,0.0,0.0,0.000110095783331,0.0,0.0,0.0,0.00363316084994,0.0,0.0,0.0,0.0,0.0,0.0,0.0,0.0,0.0,0.000660574699989,0.0,0.0,0.0,0.0,0.0,0.000110095783331,0.0,0.0,0.0,0.0105691951998,0.0,0.0,0.00297258614995,0.0,0.0,0.0,0.00121105361665,0.0,0.0,0.0,0.0132114939998,0.0,0.0,0.0,0.0,0.0,0.00077067048332,0.0,0.0,0.0,0.0,0.0,0.000110095783331,0.0,0.0,0.0,0.0,0.0,0.0,0.0,0.0,0.0,0.0,0.0108994825498,0.0,0.0,0.0,0.0,0.0,0.0,0.0,0.0,0.0,0.0,0.0,0.0,0.0,0.0,0.0,0.0,0.0,0.0,0.0,0.0,0.0,0.0,0.0,0.0,0.000110095783331,0.0,0.000880766266652,0.0,0.0,0.0,0.000220191566663,0.0,0.0,0.0,0.0,0.00132114939998,0.000110095783331,0.0017615325333,0.0,0.00726632169988,0.000220191566663,0.0,0.0,0.0,0.0120004403831,0.000550478916657,0.0,0.0,0.00495431024992,0.0,0.0,0.0,0.0,0.0,0.0,0.0,0.0,0.000330287349994,0.0,0.0,0.0,0.0,0.0,0.000220191566663,0.0,0.0,0.0,0.0,0.0,0.0,0.0,0.0,0.0,0.0,0.0,0.0,0.0,0.0,0.0,0.0,0.0,0.0,0.0,0.0,0.0,0.0,0.0,0.0,0.0,0.0,0.0,0.0,0.0,0.0,0.0,0.0,0.0,0.0,0.0,0.0,0.0,0.0,0.0,0.000440383133326,0.0,0.0,0.0,0.000110095783331,0.0,0.0,0.0,0.00110095783331,0.0,0.0,0.0,0.0,0.0,0.000440383133326,0.0,0.0,0.0,0.0,0.0,0.0,0.0,0.0,0.0,0.0,0.0,0.0,0.0,0.0,0.0,0.0,0.0,0.0,0.0,0.000990862049983,0.000110095783331,0.0,0.0,0.0,0.000330287349994,0.0,0.0,0.000220191566663,0.0,0.0,0.0,0.0140922602664,0.000110095783331,0.0,0.0,0.0,0.0,0.0,0.0252119343829,0.0,0.0,0.0,0.0,0.0,0.0,0.0,0.00110095783331,0.0,0.0,0.0,0.0,0.0,0.0,0.0,0.0,0.0,0.0,0.0,0.0,0.0,0.0,0.0,0.0,0.0,0.0,0.0,0.00308268193328,0.0,0.000880766266652,0.0,0.0,0.0,0.0,0.0,0.0,0.0,0.0,0.00220191566663,0.0,0.0,0.0,0.0,0.0,0.0,0.000220191566663,0.0,0.0,0.0,0.0,0.0,0.0,0.0,0.0,0.0156336012331,0.0,0.0,0.0,0.0118903445998,0.0,0.0,0.0,0.0149730265331,0.0,0.0,0.0,0.0,0.0,0.000990862049983,0.0,0.0,0.0,0.0,0.0,0.0,0.0,0.0,0.0,0.0,0.0,0.0,0.000990862049983,0.0,0.0,0.0,0.0,0.0,0.0,0.0,0.0,0.0,0.0,0.0,0.0,0.0,0.000110095783331,0.0,0.0,0.0,0.0,0.0,0.0,0.0,0.0,0.0,0.0,0.0,0.0,0.0,0.0,0.0,0.0,0.0,0.0,0.0,0.0,0.0,0.0,0.0,0.0,0.0,0.0,0.0,0.0,0.0,0.0,0.0,0.0,0.0,0.0,0.0,0.0,0.0,0.0,0.0,0.0,0.000110095783331,0.0,0.0,0.0,0.0,0.0,0.0,0.000110095783331,0.0,0.0,0.0,0.0,0.0,0.0,0.0,0.0,0.000110095783331,0.0115600572498,0.0,0.0,0.0,0.0,0.0,0.0,0.0,0.103710227898,0.0,0.0,0.0,0.0,0.0,0.0,0.0,0.0,0.0,0.0,0.0,0.0,0.0,0.0,0.0,0.0,0.0,0.0,0.0,0.0,0.0,0.0,0.0,0.0,0.0,0.0,0.0,0.0618738302323,0.0319277771661,0.00902785423318,0.00825718374986,0.00528459759991,0.0144225476164,0.0059451722999,0.0238907849829,0.038863811516,0.000440383133326,0.0017615325333,0.0097985247165,0.0241109765496,0.0242210723329,0.0281845205329,0.0059451722999,0.00110095783331,0.0128812066498,0.0240008807663,0.0646262248156,0.00396344819993,0.00143124518331,0.0226797313663,0.0,0.0117802488165,0.0,0.0
ae,0.0,0.0,0.0,0.0,0.0,0.0,0.0,0.0,0.0,0.0,0.0,0.0,0.0,0.0,0.0,0.0,0.0,0.0,0.00591715976331,0.0,0.0,0.0,0.0,0.0,0.0,0.0,0.0,0.0,0.0,0.0,0.0,0.0,0.0,0.0,0.0,0.0,0.0,0.0,0.0,0.0,0.0,0.0,0.0,0.0,0.0,0.0,0.0,0.0,0.0,0.0,0.0,0.0,0.0,0.0,0.0,0.0,0.0,0.0,0.0,0.0,0.0,0.0,0.0,0.0,0.0,0.0,0.0,0.0,0.0,0.0,0.0,0.0,0.0,0.0,0.0,0.0,0.0,0.0,0.0,0.0,0.0,0.0,0.0,0.0,0.0,0.0,0.0,0.0,0.0,0.0,0.0,0.0,0.0,0.0,0.0,0.0,0.0,0.0,0.0,0.0,0.0,0.0,0.0,0.0,0.0,0.0,0.0,0.00591715976331,0.0,0.0,0.0,0.0,0.0,0.0,0.0,0.0,0.0,0.0,0.0,0.0,0.0,0.0,0.0,0.0,0.0,0.0,0.0,0.0,0.0,0.0,0.0,0.0,0.0,0.0,0.0,0.0,0.0,0.0,0.0,0.0,0.0,0.0,0.0,0.0,0.0,0.0,0.0,0.0,0.0,0.0,0.0,0.0,0.0,0.0,0.0,0.0,0.0,0.0,0.0,0.0,0.0,0.0,0.0,0.0,0.0,0.0,0.0,0.0,0.0,0.0,0.0,0.0,0.0,0.0,0.0,0.0,0.0,0.0,0.0,0.0,0.0,0.0,0.0,0.0,0.0,0.0,0.0,0.0,0.0,0.0,0.0,0.0,0.0,0.0,0.0,0.0,0.0,0.0,0.0,0.0,0.0,0.0,0.0,0.0,0.0,0.0,0.0,0.0,0.0,0.0,0.0,0.0,0.0,0.0,0.0,0.0,0.0,0.0,0.0,0.0,0.0,0.0,0.0,0.0,0.0,0.0,0.0,0.0,0.0,0.0,0.0,0.0,0.0,0.0,0.0,0.0,0.0,0.0,0.0,0.0,0.0,0.0,0.0,0.0,0.0,0.0,0.0,0.0,0.0,0.0,0.0,0.0,0.0,0.0,0.0,0.0,0.0,0.0,0.0,0.0,0.0,0.0,0.0,0.0,0.0,0.0,0.0,0.0,0.0,0.0,0.0,0.0,0.0,0.0,0.0,0.0,0.0,0.0,0.0,0.0,0.0,0.0,0.0,0.0,0.0,0.0,0.0,0.0,0.0,0.0,0.0,0.0,0.0,0.0,0.0,0.0,0.0,0.0,0.0,0.0,0.0,0.0,0.0,0.0,0.0,0.0,0.0,0.0,0.0,0.0118343195266,0.0,0.0,0.0,0.0,0.0,0.0,0.0,0.0,0.0,0.0,0.0,0.0,0.0,0.10650887574,0.0,0.0,0.0,0.0,0.0,0.0,0.0,0.0,0.0,0.0,0.0,0.0,0.0,0.0,0.0,0.0,0.0,0.0,0.0,0.0,0.0,0.0,0.0,0.0,0.0,0.0,0.0,0.0,0.0,0.0,0.0,0.0,0.0,0.0,0.0,0.0,0.0,0.0,0.0,0.0,0.0,0.0,0.0,0.0,0.0,0.0,0.0,0.0,0.0,0.0,0.0,0.0,0.0,0.597633136095,0.0,0.0,0.0,0.0,0.0,0.0,0.0,0.0,0.0,0.0,0.0,0.0,0.0,0.0,0.0,0.0,0.0,0.0,0.0,0.0,0.0,0.0,0.0,0.0,0.0,0.0,0.0,0.0,0.0,0.0,0.0,0.0,0.0,0.0,0.0,0.0,0.0,0.0,0.0,0.0,0.0,0.0,0.0,0.0,0.0,0.0,0.0,0.0,0.0,0.0,0.0,0.0,0.0,0.0,0.0,0.0,0.0,0.0,0.0,0.0,0.0,0.0,0.0,0.0,0.0,0.0,0.0,0.0,0.0,0.0,0.0,0.0,0.0,0.0,0.0,0.0,0.0,0.0,0.0,0.0,0.0,0.0,0.0,0.0,0.0,0.0,0.0,0.0,0.0,0.00591715976331,0.0,0.0,0.0,0.0,0.0,0.0,0.0,0.0,0.0,0.0,0.201183431953,0.0,0.0,0.0,0.0,0.0236686390533,0.0,0.0118343195266,0.00591715976331,0.0,0.0,0.0,0.0,0.0,0.0,0.0,0.0,0.0,0.0,0.0,0.0,0.0,0.0,0.0,0.0,0.0,0.0,0.0,0.0,0.0,0.0,0.0,0.0,0.0,0.0118343195266,0.0,0.0,0.0,0.0,0.0,0.0,0.0,0.0118343195266,0.0,0.0,0.0,0.0,0.0,0.0,0.0,0.0,0.0,0.0,0.0,0.0,0.0,0.0,0.0,0.0,0.0,0.0,0.0,0.0,0.0,0.0,0.0,0.0,0.0,0.0,0.0,0.0,0.0,0.0,0.0,0.0,0.0,0.0,0.0,0.0,0.0,0.0,0.0,0.0,0.0,0.0,0.0,0.0,0.0,0.0,0.0,0.0,0.0,0.0,0.0,0.0,0.0,0.0,0.0,0.0,0.0,0.0,0.0,0.0,0.0,0.0,0.0,0.0,0.0,0.0,0.0,0.0,0.0,0.0,0.0,0.0,0.0,0.0,0.0,0.0,0.0,0.0,0.0,0.0,0.0,0.0,0.0,0.0,0.0,0.0,0.0,0.0,0.0,0.0,0.0,0.0,0.0,0.0,0.0,0.0,0.0,0.0,0.0,0.0,0.0,0.0,0.0,0.0,0.0,0.0,0.0,0.0,0.0,0.0,0.0,0.0,0.0,0.0,0.0,0.0,0.0,0.0,0.0,0.0,0.0,0.0,0.0,0.0,0.0,0.0,0.0,0.0,0.0,0.0,0.0,0.0,0.0,0.0,0.0,0.0,0.0,0.0,0.0,0.0,0.0,0.0,0.0,0.0,0.0,0.0,0.0,0.0,0.0,0.0,0.0,0.0,0.0,0.0,0.0,0.0,0.0,0.0,0.0,0.0,0.0,0.0,0.0,0.0,0.0,0.0,0.0,0.0,0.0,0.0,0.0,0.0,0.0,0.0,0.0,0.0,0.0,0.0,0.0,0.0,0.0,0.0,0.0,0.0,0.0,0.0,0.0,0.0,0.0,0.0,0.0,0.0,0.0,0.0,0.0,0.0,0.0,0.0,0.0,0.0,0.0,0.0,0.0,0.0,0.0,0.0,0.0,0.0
af,0.0,0.0,0.0,0.0,0.0,0.0,0.0,0.0,0.0,0.0,0.0,0.00118764845606,0.0,0.0,0.0,0.0,0.0,0.00356294536817,0.0,0.0,0.0,0.0,0.0,0.0,0.0,0.0,0.0,0.0,0.0,0.0,0.0,0.0,0.0,0.0,0.0,0.0,0.0,0.0,0.0,0.0,0.0,0.0,0.0,0.0,0.0,0.0,0.0,0.0,0.0,0.0,0.0,0.0,0.0,0.0,0.0,0.0,0.0,0.0,0.0,0.0,0.0,0.0,0.0,0.0,0.0,0.0,0.0,0.0,0.0,0.0,0.0,0.0,0.0,0.0,0.0,0.0,0.0,0.0,0.0,0.0,0.0,0.0,0.0,0.0,0.0,0.0,0.0,0.0,0.0,0.0,0.0,0.0,0.0,0.0,0.0,0.0,0.0,0.0,0.0,0.0,0.0,0.0,0.0,0.0,0.0,0.0,0.0,0.00534441805226,0.0195961995249,0.0,0.00178147268409,0.00534441805226,0.0,0.0,0.0041567695962,0.0,0.0,0.0,0.0,0.0154394299287,0.0,0.00178147268409,0.0,0.0,0.0,0.0112826603325,0.00653206650831,0.0445368171021,0.00296912114014,0.0,0.0,0.0,0.0,0.0,0.083729216152,0.0516627078385,0.0,0.0,0.00178147268409,0.110451306413,0.0,0.0,0.0,0.0190023752969,0.0,0.0,0.0320665083135,0.0,0.0,0.0296912114014,0.0,0.0,0.0190023752969,0.00653206650831,0.0,0.0,0.0,0.000593824228029,0.0,0.00118764845606,0.0,0.0736342042755,0.0,0.0,0.0,0.0,0.0,0.0,0.0,0.0,0.0,0.0,0.0,0.0,0.0,0.0,0.0,0.0,0.0,0.0,0.0,0.0,0.0,0.0,0.0,0.0,0.0,0.0,0.0,0.0,0.0,0.0,0.0,0.0,0.0,0.0,0.0,0.0,0.0,0.0,0.0,0.0,0.0,0.0,0.0,0.0,0.0,0.0,0.0,0.0,0.0,0.0,0.0,0.0,0.0,0.0,0.0,0.0,0.0,0.0,0.00237529691211,0.0,0.00118764845606,0.0,0.0,0.0,0.0,0.0,0.0,0.00118764845606,0.0,0.0,0.0,0.00178147268409,0.0,0.0,0.0,0.0,0.0,0.0,0.0,0.0,0.0,0.0,0.0,0.0,0.0,0.0,0.0,0.0,0.0,0.0,0.0,0.0,0.0,0.0,0.0,0.0,0.0,0.0,0.0,0.0,0.0,0.0,0.0,0.0,0.0,0.0,0.0,0.0,0.0,0.0,0.0,0.0,0.0,0.0,0.0,0.0,0.0,0.0,0.0,0.0,0.0,0.0,0.0,0.0,0.0,0.0,0.0,0.0,0.0,0.0,0.0,0.0,0.0,0.0,0.0,0.0,0.0,0.0,0.0,0.0,0.0,0.0,0.0,0.0,0.0,0.0,0.0,0.0,0.0,0.000593824228029,0.0,0.0,0.0,0.0,0.0,0.0,0.0,0.0,0.0,0.0,0.0,0.0,0.0,0.0,0.0,0.0,0.0,0.0,0.0,0.0,0.0,0.0,0.0,0.0,0.0,0.0,0.0,0.0,0.0,0.0,0.0,0.0,0.0,0.0,0.0,0.0,0.0,0.0,0.0,0.0,0.0,0.0,0.0,0.00118764845606,0.0,0.0,0.0,0.000593824228029,0.0,0.0,0.0,0.0,0.0,0.0,0.0,0.0,0.0,0.0,0.0,0.0,0.0,0.0,0.0,0.0,0.0,0.0,0.0,0.0,0.0,0.0,0.0,0.0,0.0,0.0,0.0,0.0,0.0,0.0,0.0,0.0,0.0148456057007,0.0,0.0,0.0124703087886,0.0,0.0,0.0,0.0,0.0,0.0,0.000593824228029,0.0,0.0,0.0,0.0,0.0,0.0,0.0,0.0,0.0,0.0,0.0,0.0,0.0,0.0,0.0,0.0,0.0,0.0,0.0,0.0,0.0,0.0,0.0,0.0,0.0,0.0,0.0,0.0,0.0,0.0,0.0,0.0,0.0,0.0,0.0,0.0,0.0,0.0,0.0,0.0,0.0,0.0,0.0,0.0,0.0,0.0,0.0,0.0,0.0,0.0,0.0,0.0,0.0,0.0,0.0,0.0,0.0243467933492,0.0,0.0,0.0,0.00237529691211,0.0,0.0,0.0,0.00356294536817,0.0,0.0,0.0,0.0,0.0,0.000593824228029,0.0,0.0,0.0,0.0,0.0,0.0,0.0,0.0,0.0,0.0,0.0,0.0,0.0,0.0,0.0,0.0,0.0,0.0,0.0,0.0,0.0,0.0,0.0,0.0,0.0,0.0,0.0,0.0,0.0,0.0,0.0,0.000593824228029,0.0,0.0,0.0,0.0,0.0,0.0,0.00118764845606,0.00118764845606,0.0,0.0,0.0,0.298693586698,0.0,0.0,0.0,0.00296912114014,0.0,0.0,0.0,0.0,0.0,0.0,0.0,0.0,0.0,0.00712589073634,0.0,0.000593824228029,0.0,0.0,0.0,0.00712589073634,0.0,0.0338479809976,0.0,0.0,0.0,0.0,0.0,0.0,0.0,0.0,0.0,0.0,0.0,0.0,0.0,0.0,0.0,0.0,0.0,0.0,0.0,0.0,0.0,0.0,0.0,0.0,0.0,0.0,0.0,0.0,0.0,0.0,0.0,0.0,0.0,0.0,0.0,0.0,0.0,0.0,0.0,0.0,0.0,0.0,0.0,0.0,0.0,0.0,0.0,0.0,0.0,0.0,0.0,0.0,0.0,0.0,0.0,0.0,0.0,0.0,0.0,0.0,0.0,0.0,0.0,0.0,0.0,0.0,0.0,0.0,0.0,0.0,0.0,0.0,0.0,0.0,0.0,0.0,0.0,0.0,0.0,0.0,0.0,0.0,0.0,0.0,0.0,0.0,0.0,0.0,0.0,0.0,0.0,0.0,0.0,0.0,0.0,0.0,0.0,0.0,0.0,0.0,0.0,0.0,0.0,0.0,0.0,0.0,0.0,0.0,0.0,0.0,0.0,0.0,0.0,0.0,0.0,0.0,0.0,0.0,0.0,0.0,0.0,0.0,0.0,0.0,0.0,0.0,0.0,0.0,0.0,0.0,0.0,0.0,0.0,0.0,0.000593824228029,0.0,0.0,0.0,0.0,0.0,0.0,0.0,0.0,0.0,0.0,0.0,0.0,0.0,0.0,0.0,0.0,0.0,0.0,0.0,0.0,0.0,0.0,0.0,0.0,0.0,0.0,0.0,0.00296912114014,0.00118764845606,0.0,0.000593824228029,0.00118764845606,0.000593824228029,0.0,0.00118764845606,0.00237529691211,0.0,0.0,0.000593824228029,0.00118764845606,0.000593824228029,0.00237529691211,0.000593824228029,0.0,0.0,0.00118764845606,0.00712589073634,0.0,0.0,0.000593824228029,0.0,0.00118764845606,0.0,0.0
ag,0.0,0.00121094696052,0.0,0.0,0.0,0.0,0.0,0.0,0.317510293049,0.0,0.0,0.0,0.00823443933156,0.00363284088157,0.0,0.0,0.0,0.000242189392105,0.0,0.00339065148946,0.0,0.0,0.0,0.0,0.0,0.000242189392105,0.0,0.0,0.0,0.0,0.0,0.000242189392105,0.0,0.0,0.0,0.0,0.0,0.0,0.0,0.0,0.0,0.000242189392105,0.0,0.0,0.0,0.0,0.0,0.0,0.0,0.0,0.0,0.0,0.0,0.0,0.0,0.0,0.0,0.0,0.0,0.0,0.0,0.0,0.0,0.0,0.0,0.0,0.0,0.0,0.0,0.0,0.0,0.0,0.0,0.0,0.0,0.0,0.0,0.0,0.0,0.0,0.0,0.0,0.0,0.0,0.0,0.0,0.0,0.0,0.0,0.0,0.0,0.0,0.0,0.0,0.0,0.0,0.0,0.0,0.0,0.0,0.0,0.0,0.0,0.0,0.0,0.0,0.0,0.00847662872366,0.00435940905788,0.000968757568419,0.0,0.0157423104868,0.0,0.000242189392105,0.0,0.000242189392105,0.0,0.0,0.0,0.000484378784209,0.0053281666263,0.0157423104868,0.00484378784209,0.000242189392105,0.0,0.0128360377815,0.0341487042868,0.000968757568419,0.0,0.0,0.000242189392105,0.0,0.0,0.0,0.30612739162,0.0,0.0,0.0,0.0,0.0,0.0,0.0,0.0,0.0,0.0,0.0,0.0,0.0,0.0,0.0,0.0,0.0,0.0,0.0,0.0,0.0,0.0,0.0,0.0,0.0,0.0,0.0,0.00629692419472,0.0,0.0,0.000968757568419,0.0273674013078,0.0,0.0,0.0,0.00435940905788,0.0,0.0,0.000968757568419,0.0,0.0,0.00314846209736,0.0,0.0,0.00121094696052,0.0,0.0,0.0,0.0,0.0,0.0,0.0,0.0,0.0,0.000484378784209,0.0,0.0,0.0,0.0,0.0,0.0,0.0,0.0,0.0,0.0,0.0,0.0,0.0,0.0,0.0,0.0,0.0,0.0,0.0,0.0,0.0,0.0,0.0,0.0,0.0,0.0,0.0,0.0,0.00799224993945,0.0,0.0,0.0,0.0,0.0,0.0,0.0,0.0,0.000484378784209,0.0,0.0244611286026,0.0050859772342,0.0,0.0,0.0,0.00217970452894,0.00121094696052,0.0,0.0,0.0,0.0,0.0,0.0,0.000242189392105,0.0,0.0,0.0,0.0,0.0,0.0,0.0,0.0,0.0,0.0,0.0,0.0,0.0,0.0,0.0,0.0,0.0,0.0,0.0,0.0,0.0,0.0,0.0,0.0,0.0,0.0,0.0,0.0,0.0,0.0,0.0,0.0,0.0,0.0,0.0,0.0,0.0,0.0,0.0,0.0,0.0,0.0,0.0,0.0,0.0,0.0,0.0,0.0,0.0,0.0,0.0,0.0,0.0,0.0,0.0,0.0,0.0,0.0,0.00968757568419,0.0,0.0,0.0,0.0,0.0,0.0,0.0,0.0,0.0,0.0,0.0,0.0,0.0,0.0,0.0,0.0,0.0,0.0,0.0,0.0,0.0,0.0,0.0,0.0,0.0,0.0,0.00169532574473,0.0,0.0,0.0,0.000484378784209,0.0,0.0,0.0,0.0,0.0,0.0,0.0,0.0,0.0,0.0,0.0,0.0,0.0,0.0,0.0,0.0,0.0,0.0,0.00266408331315,0.0,0.0,0.0,0.0,0.0,0.0,0.0,0.00193751513684,0.0,0.0,0.0,0.0,0.0,0.0,0.0,0.0,0.0,0.0,0.0,0.000242189392105,0.0,0.0,0.0,0.0,0.0,0.000242189392105,0.0,0.0,0.0,0.0,0.0,0.0,0.000484378784209,0.0,0.000242189392105,0.0,0.0,0.0,0.0,0.0121094696052,0.000242189392105,0.0,0.0,0.00145313635263,0.000242189392105,0.00169532574473,0.0,0.0,0.000242189392105,0.0,0.0,0.000726568176314,0.0227658028578,0.0,0.0,0.0,0.0,0.0,0.0,0.0,0.0,0.00121094696052,0.0,0.0,0.0,0.0,0.0,0.0,0.0,0.0,0.0,0.0,0.0,0.0,0.0,0.0,0.0,0.0,0.0,0.0,0.0,0.0,0.0,0.0,0.0,0.0,0.0,0.0,0.0,0.0,0.0,0.0,0.0,0.0,0.0,0.0,0.0,0.0,0.0,0.0,0.0,0.0,0.0,0.0,0.0,0.0,0.0,0.00145313635263,0.0,0.0,0.0,0.0142891741342,0.0,0.0,0.0,0.00266408331315,0.0,0.0,0.0,0.0,0.0,0.000726568176314,0.0,0.0,0.0,0.0,0.0,0.0,0.0,0.0,0.0,0.0,0.0,0.0,0.0,0.0,0.0,0.0,0.000242189392105,0.0,0.0,0.0,0.0,0.0,0.0,0.0,0.0,0.0,0.0,0.0,0.0,0.0,0.0,0.0,0.0,0.0,0.0,0.0,0.0,0.0,0.0113829014289,0.000242189392105,0.0,0.0,0.0,0.0,0.0,0.0,0.0,0.0,0.0,0.0,0.0,0.0,0.0,0.0,0.0,0.0,0.0,0.0,0.0,0.0,0.0,0.0,0.0,0.0,0.0,0.0,0.0,0.0,0.0,0.00169532574473,0.0535238556551,0.0,0.0,0.0,0.000242189392105,0.0,0.0,0.000242189392105,0.0,0.0,0.0,0.0,0.0,0.0,0.000484378784209,0.0,0.0,0.0,0.0,0.0,0.000242189392105,0.0,0.0,0.0,0.0,0.0,0.0,0.0,0.0,0.0,0.0,0.0,0.0,0.0,0.0,0.0,0.0,0.0,0.0,0.0,0.0,0.0,0.0,0.0,0.0,0.0,0.0,0.0,0.0,0.0,0.0,0.0,0.0,0.0,0.0,0.0,0.0,0.0,0.0,0.0,0.0,0.0,0.0,0.0,0.0,0.0,0.0,0.0,0.0,0.0,0.0,0.0,0.0,0.0,0.0,0.0,0.0,0.0,0.0,0.0,0.0,0.0,0.0,0.0,0.0,0.0,0.0,0.0,0.0,0.0,0.0,0.0,0.0,0.0,0.0,0.0,0.0,0.0,0.0,0.0,0.0,0.0,0.0,0.0,0.0,0.0,0.0,0.0,0.0,0.0,0.0,0.0,0.0,0.0,0.0,0.0,0.0,0.0,0.0,0.0,0.0,0.0,0.0,0.0,0.0,0.0,0.0,0.0,0.0,0.0,0.0,0.0,0.0,0.0,0.0,0.0,0.0,0.0,0.0,0.0,0.0,0.0,0.0,0.0,0.0,0.0,0.0,0.0,0.0,0.0,0.0,0.0,0.0,0.0,0.0,0.0,0.0,0.0,0.00217970452894,0.00121094696052,0.000484378784209,0.000484378784209,0.000484378784209,0.000242189392105,0.0,0.00169532574473,0.000242189392105,0.0,0.0,0.000242189392105,0.000968757568419,0.0,0.00484378784209,0.000242189392105,0.0,0.000242189392105,0.000484378784209,0.00435940905788,0.000484378784209,0.0,0.00242189392105,0.0,0.000484378784209,0.0,0.0
ah,0.0,0.0,0.0,0.0,0.0,0.0,0.0,0.0,0.0,0.0,0.0,0.0,0.0112676056338,0.0,0.0,0.0,0.0,0.0,0.0,0.0,0.0,0.0,0.0,0.0,0.0,0.0,0.0,0.0,0.0,0.0,0.0,0.0,0.0,0.0,0.0,0.0,0.0,0.0,0.0,0.0,0.0,0.0,0.0,0.0,0.0,0.0,0.0,0.0,0.0,0.0,0.0,0.0,0.0,0.0,0.0,0.0,0.0,0.0,0.0,0.0,0.0,0.0,0.0,0.0,0.0,0.0,0.0,0.0,0.0,0.0,0.0,0.0,0.0,0.0,0.0,0.0,0.0,0.0,0.0,0.0,0.0,0.0,0.0,0.0,0.0,0.0,0.0,0.0,0.0,0.0,0.0,0.0,0.0,0.0,0.0,0.0,0.0,0.0,0.0,0.0,0.0,0.0,0.0,0.0,0.0,0.0,0.0,0.0,0.00281690140845,0.0,0.0,0.0,0.0,0.0,0.0,0.0,0.00281690140845,0.0,0.0,0.0,0.0,0.00281690140845,0.0,0.0,0.0,0.0,0.0,0.0,0.0,0.0,0.0,0.0,0.0,0.0,0.0,0.0,0.0,0.0,0.0,0.0,0.0,0.0,0.0,0.0,0.0,0.0,0.0,0.0,0.0,0.0,0.0,0.0,0.0,0.0,0.0,0.0,0.0,0.0,0.0,0.0,0.0,0.0,0.0,0.0,0.0,0.0,0.0,0.0,0.0,0.0,0.0,0.0,0.0,0.0,0.0,0.0,0.0,0.0,0.0,0.0,0.0,0.0,0.0,0.0,0.0,0.0,0.0,0.0,0.0,0.0,0.0,0.0,0.0,0.0,0.0,0.0,0.0,0.0,0.0,0.0,0.0,0.0,0.0,0.0,0.0,0.0,0.0,0.0,0.0,0.0,0.0,0.0,0.0,0.0,0.0,0.0,0.0,0.0,0.0,0.0,0.0,0.0,0.00281690140845,0.0,0.0,0.0,0.0,0.0,0.0,0.0,0.0,0.0,0.0,0.0,0.0,0.0,0.0,0.0,0.0,0.0,0.0,0.0,0.0,0.0,0.0,0.0,0.0,0.0,0.0,0.0,0.0,0.0,0.0,0.0,0.0,0.0,0.0,0.0,0.0,0.0,0.0,0.0,0.0,0.0,0.0,0.0,0.0,0.0,0.0,0.0,0.0,0.0,0.0,0.0,0.0,0.0,0.0,0.0,0.0,0.0,0.0,0.0,0.0,0.0,0.0,0.0,0.0,0.0,0.0,0.0,0.0,0.0,0.0,0.0,0.0,0.0,0.0,0.0,0.0,0.0,0.0,0.0,0.0,0.0,0.0,0.0,0.0,0.0,0.0,0.0,0.0,0.0,0.0,0.0,0.0,0.0,0.0,0.0,0.0,0.0,0.0,0.0,0.0,0.0,0.0,0.0,0.0,0.0,0.0,0.0,0.0,0.0,0.0,0.0,0.0,0.0,0.0,0.0,0.0,0.0,0.0,0.0,0.0,0.0,0.0,0.0,0.0,0.0,0.0,0.0,0.0,0.0,0.0,0.0,0.0,0.0,0.0,0.0,0.0,0.0,0.0,0.0,0.0,0.0,0.0,0.0,0.0,0.0,0.0,0.0,0.0,0.0,0.0,0.0,0.0,0.0,0.0,0.0,0.0,0.0,0.0,0.0,0.0,0.0,0.0,0.0,0.0,0.0,0.0,0.0056338028169,0.00281690140845,0.0,0.00281690140845,0.0,0.0,0.0,0.0,0.0,0.0,0.0,0.0,0.0,0.0,0.0,0.0,0.0,0.0,0.0,0.0,0.0,0.0,0.0,0.0,0.0,0.0,0.0,0.0,0.0,0.0,0.0,0.0,0.0,0.0,0.0,0.0,0.0,0.0,0.0,0.0,0.0,0.0,0.0,0.0,0.0,0.0,0.0,0.0,0.0,0.0,0.0,0.0,0.0,0.0,0.0,0.0,0.0,0.0,0.0,0.0,0.0,0.0,0.0,0.0,0.0,0.0,0.0,0.0,0.0,0.0,0.0,0.0,0.0,0.0,0.0,0.0,0.0,0.0,0.0,0.0,0.0,0.0,0.0,0.0,0.0,0.0,0.0,0.0,0.0,0.0,0.0,0.0,0.0,0.0,0.0,0.0,0.0,0.0,0.0,0.0,0.0,0.0,0.0,0.0,0.0,0.0,0.0,0.0,0.0,0.0,0.0,0.0,0.0,0.0,0.0,0.0,0.0,0.0,0.0,0.0,0.0,0.0,0.0,0.0056338028169,0.0,0.0,0.0,0.0,0.0,0.0,0.0,0.0,0.0,0.0,0.0,0.0,0.0,0.0,0.0,0.0,0.0,0.0,0.0,0.0,0.0,0.0,0.0,0.0,0.0,0.0,0.0,0.0,0.0,0.0,0.0,0.0,0.0,0.0,0.0,0.0,0.0,0.0,0.0,0.0,0.0056338028169,0.0,0.0,0.0,0.0,0.0,0.0,0.0,0.0,0.0,0.0,0.0,0.0,0.0056338028169,0.0,0.0,0.0,0.0,0.0,0.0,0.0,0.0,0.0,0.0,0.0,0.0,0.0,0.0,0.0,0.0,0.0,0.0,0.0,0.0,0.0,0.0,0.0,0.0,0.0,0.0,0.0,0.0,0.0,0.0,0.0,0.0,0.0,0.0,0.0,0.0,0.0,0.0,0.0,0.0,0.0,0.0,0.0,0.0,0.0,0.0,0.0,0.0,0.0,0.0,0.0,0.0,0.0,0.0,0.0,0.0,0.0,0.0,0.0,0.0,0.0,0.0,0.0,0.0,0.0,0.0,0.0,0.0,0.0,0.0,0.0,0.0,0.0,0.0,0.0,0.0,0.0,0.0,0.0,0.0,0.0,0.0,0.0,0.0,0.0,0.0,0.0,0.0,0.0,0.0,0.0,0.0,0.0,0.0,0.0,0.0,0.0,0.0,0.0,0.0,0.0,0.0,0.0,0.0,0.0,0.0,0.0,0.0,0.0,0.0,0.0,0.0,0.0,0.0,0.0,0.0,0.0,0.0,0.0,0.0,0.0,0.0,0.0,0.0,0.0,0.0,0.0,0.0,0.0,0.0,0.0,0.0,0.0,0.0,0.0,0.0225352112676,0.0507042253521,0.0507042253521,0.0169014084507,0.00845070422535,0.0253521126761,0.0591549295775,0.0704225352113,0.0591549295775,0.0169014084507,0.00845070422535,0.0225352112676,0.0647887323944,0.0338028169014,0.0112676056338,0.0197183098592,0.0056338028169,0.0169014084507,0.0676056338028,0.107042253521,0.00281690140845,0.0112676056338,0.146478873239,0.0,0.0507042253521,0.0,0.0
ai,0.0,0.0,0.0,0.000100110121133,0.0,0.0,0.0,0.0,0.0,0.0,0.0,0.0,0.0,0.000200220242266,0.0,0.0,0.0,0.0,0.0,0.0,0.0,0.0,0.0,0.0,0.0,0.0,0.0,0.0,0.0,0.0,0.0,0.0,0.0,0.0,0.0,0.0,0.0,0.0,0.0,0.0,0.0,0.0,0.0,0.0,0.0,0.0,0.0,0.0,0.0,0.0,0.0,0.0,0.0,0.0,0.0,0.0,0.0,0.0,0.0,0.0,0.0,0.0,0.0,0.0,0.000100110121133,0.0,0.0,0.0,0.0,0.0,0.0,0.0,0.0,0.0,0.0,0.0,0.0,0.0,0.0,0.0,0.0,0.0003003303634,0.0,0.000100110121133,0.0,0.00850936029633,0.000100110121133,0.0,0.000200220242266,0.000400440484533,0.0,0.0,0.000200220242266,0.0,0.0,0.0,0.000100110121133,0.0,0.0,0.00690759835819,0.0,0.0,0.0,0.0,0.0,0.0,0.0,0.0868955851437,0.0,0.0,0.0,0.0,0.0,0.0,0.0,0.0,0.0,0.0,0.0,0.0,0.0,0.0,0.0,0.0,0.0,0.000100110121133,0.0,0.0,0.0,0.0,0.0,0.0,0.0,0.0,0.0,0.0,0.0,0.0,0.0,0.0,0.0,0.0,0.0,0.0,0.0,0.0,0.0,0.0,0.0,0.0,0.0,0.0,0.0,0.0,0.0,0.0,0.0,0.0,0.0,0.0,0.0,0.0,0.0,0.0,0.0,0.0,0.0,0.0,0.0,0.0160176193813,0.0,0.0,0.0,0.0,0.0,0.00100110121133,0.0,0.0,0.0,0.000100110121133,0.0,0.0,0.0,0.0,0.0,0.0,0.0,0.0,0.0,0.0,0.0,0.0,0.0,0.0,0.0,0.0,0.0,0.0,0.0,0.0,0.0,0.0,0.0,0.0,0.0,0.0,0.0,0.0,0.0,0.0,0.0,0.0,0.0,0.0,0.0,0.0,0.0,0.0,0.0,0.0,0.0,0.0,0.0,0.0,0.0,0.0,0.0,0.0,0.0,0.0,0.0,0.0,0.0,0.0,0.0,0.0,0.0,0.0,0.0,0.0,0.0,0.0,0.0,0.0,0.0,0.0,0.0,0.0,0.0,0.0,0.0,0.0,0.0,0.0,0.0,0.0,0.0,0.0,0.0,0.0,0.0,0.0,0.0,0.0,0.0,0.0,0.0,0.0,0.0,0.0,0.0,0.0,0.0,0.0,0.0,0.0,0.0,0.0,0.0,0.0,0.0,0.0,0.0,0.0,0.0,0.0,0.0,0.0,0.0,0.0,0.0,0.0,0.0,0.0,0.0,0.0,0.0,0.000400440484533,0.0,0.0,0.00470517569326,0.00260286314946,0.000200220242266,0.0,0.0,0.00350385423966,0.0,0.0,0.0003003303634,0.000200220242266,0.0,0.00610671738913,0.000200220242266,0.0,0.0,0.0106116728401,0.00140154169587,0.0,0.0,0.0,0.0,0.003003303634,0.0,0.0381419561518,0.0,0.0,0.0,0.00400440484533,0.0021023125438,0.0,0.0,0.0,0.000600660726799,0.0,0.0,0.0,0.0,0.0,0.000200220242266,0.0,0.0,0.0,0.00340374411853,0.0,0.0,0.0,0.0,0.0,0.0,0.0,0.0159175092602,0.0,0.0003003303634,0.000100110121133,0.0177194914406,0.0144158574432,0.00290319351286,0.000800880969066,0.0,0.00500550605666,0.0,0.0,0.00620682751026,0.00410451496646,0.00140154169587,0.000200220242266,0.000100110121133,0.0,0.000100110121133,0.107017719491,0.0624687155871,0.0,0.0,0.000100110121133,0.0,0.0003003303634,0.0,0.265492041245,0.0,0.0,0.0,0.0,0.0,0.0,0.0,0.0,0.0,0.0,0.0,0.0,0.0,0.0,0.0,0.0,0.0,0.0,0.0,0.0,0.0,0.0,0.0,0.0,0.0,0.0,0.000100110121133,0.0,0.0,0.0,0.0,0.0,0.0,0.0,0.0,0.0,0.0,0.0,0.0,0.0,0.0,0.0,0.0,0.0,0.0,0.0,0.0,0.0,0.0,0.0,0.0,0.0,0.0,0.0,0.0,0.0,0.0,0.0,0.0,0.0,0.0,0.0,0.0,0.0,0.0,0.0,0.0,0.0,0.0,0.0,0.0,0.0,0.0,0.0,0.0,0.0,0.0,0.0,0.0,0.0,0.0,0.0,0.0003003303634,0.0,0.000800880969066,0.00800880969066,0.000200220242266,0.0,0.0,0.00410451496646,0.0,0.0,0.0048052858144,0.0,0.000400440484533,0.0,0.000200220242266,0.0,0.0,0.0139153068375,0.0,0.0,0.0,0.000100110121133,0.0,0.00580638702573,0.0,0.12193412754,0.0012013214536,0.0,0.0,0.004504955451,0.027029732706,0.0,0.0,0.0,0.00230253278606,0.0,0.0,0.0,0.0,0.0,0.000100110121133,0.0,0.0,0.0,0.000400440484533,0.00140154169587,0.0,0.0,0.0,0.0,0.000100110121133,0.0,0.0018019821804,0.0,0.0,0.0,0.0,0.00200220242266,0.0,0.0,0.0475523075383,0.00290319351286,0.0,0.0,0.000100110121133,0.0,0.000100110121133,0.0208229051957,0.0,0.0,0.000200220242266,0.001501651817,0.0,0.000100110121133,0.0,0.0,0.0,0.0,0.0,0.0122134347783,0.0,0.0,0.0,0.0,0.0,0.0,0.0,0.0,0.0,0.0,0.0,0.0,0.0,0.0,0.0,0.0,0.0,0.0,0.0051056161778,0.0,0.0,0.0,0.0,0.0,0.0,0.0,0.0,0.0,0.0,0.0,0.0,0.0,0.0,0.0,0.0,0.0,0.0,0.0,0.0,0.0,0.0,0.0,0.0,0.0,0.0,0.0,0.0,0.0,0.0,0.0,0.0,0.0,0.0,0.0,0.0,0.0,0.0,0.0,0.0,0.0,0.0,0.0,0.0,0.0,0.0,0.0,0.0,0.0,0.0,0.0,0.0,0.0,0.0,0.0,0.0,0.0,0.0,0.0,0.0,0.0,0.0,0.0,0.0,0.0,0.0,0.0,0.0,0.0,0.0,0.0,0.0,0.0,0.0,0.0,0.0,0.0,0.0,0.0,0.0,0.0,0.0,0.0,0.0,0.0,0.0,0.0,0.0,0.0,0.0,0.0,0.0,0.0,0.0,0.0,0.0,0.0,0.0,0.0,0.0,0.0,0.0,0.0,0.0,0.0,0.0,0.0,0.0,0.0,0.0,0.0,0.0,0.0,0.0,0.0,0.0,0.0,0.0,0.0,0.0,0.0,0.0,0.0,0.0,0.0,0.0,0.0,0.0,0.0,0.0,0.0,0.0,0.0,0.0,0.0,0.0,0.0,0.0,0.0,0.0,0.0,0.0,0.0,0.0,0.0,0.0,0.0,0.0,0.0,0.000100110121133,0.0,0.0,0.0,0.0,0.0,0.0,0.0,0.0,0.0,0.0,0.0,0.0,0.0,0.000100110121133,0.0,0.0,0.0,0.0,0.0,0.0
aj,0.0,0.0,0.0,0.0,0.0,0.0,0.0,0.0,0.0,0.0,0.0,0.0,0.0,0.0,0.0,0.0,0.0,0.0,0.0,0.0,0.0,0.0,0.0,0.167597765363,0.0,0.00279329608939,0.0,0.0,0.0,0.0,0.0,0.0,0.0,0.0,0.0,0.0,0.0,0.0,0.0,0.0,0.0,0.0,0.0,0.0,0.0,0.0,0.0,0.0,0.0,0.0,0.0,0.0,0.0,0.0,0.0,0.0,0.0,0.0,0.0,0.0,0.0,0.0,0.0,0.0,0.0,0.0,0.0,0.0,0.0,0.0,0.0,0.0,0.0,0.0,0.0,0.0,0.0,0.0,0.0,0.0,0.0,0.0,0.0,0.0,0.0,0.0,0.0,0.0,0.0,0.0,0.0,0.0,0.0,0.0,0.0,0.0,0.0,0.0,0.0,0.0,0.0,0.0,0.0,0.0,0.0,0.0,0.0,0.0,0.0,0.0,0.00279329608939,0.0,0.0,0.0,0.0,0.0,0.0,0.0,0.0,0.0,0.0,0.0,0.0,0.0,0.0,0.0,0.810055865922,0.0,0.0,0.0,0.0,0.0,0.0,0.0,0.0,0.0,0.0,0.0,0.0,0.0,0.0,0.0,0.0,0.0,0.0,0.0,0.0,0.0,0.0,0.0,0.0,0.0,0.0,0.0,0.0,0.0,0.0,0.0,0.0,0.0,0.0,0.0,0.0,0.0,0.0,0.0,0.0,0.0,0.0,0.0,0.0,0.0,0.0,0.0,0.0,0.0,0.0,0.0,0.0,0.0,0.0,0.0,0.0,0.0,0.0,0.0,0.0,0.0,0.0,0.0,0.0,0.0,0.0,0.0,0.0,0.0,0.0,0.0,0.0,0.0,0.0,0.0,0.0,0.0,0.0,0.0,0.0,0.0,0.0,0.0,0.0,0.0,0.0,0.0,0.0,0.0,0.0,0.0,0.0,0.0,0.0,0.0,0.0,0.0,0.0,0.0,0.0,0.0,0.0,0.0,0.0,0.0,0.0,0.0,0.0,0.0,0.0,0.0,0.0,0.0,0.0,0.0,0.0,0.0,0.0,0.0,0.0,0.0,0.0,0.0,0.0,0.0,0.0,0.0,0.0,0.0,0.0,0.0,0.0,0.0,0.0,0.0,0.0,0.0,0.0,0.0,0.0,0.0,0.0,0.0,0.0,0.0,0.0,0.0,0.0,0.0,0.0,0.0,0.0,0.0,0.0,0.0,0.0,0.0,0.0,0.0,0.0,0.0,0.0,0.0,0.0,0.0,0.0,0.0,0.0,0.0,0.0,0.0,0.0,0.0,0.0,0.0,0.0,0.0,0.0,0.0,0.0,0.0,0.0,0.0,0.0,0.0,0.0,0.0,0.0,0.0,0.0,0.0,0.0,0.0,0.0,0.0,0.0,0.0,0.0,0.0,0.0,0.0,0.0,0.0,0.0,0.0,0.0,0.0,0.0,0.0,0.0,0.0,0.0,0.0,0.0,0.0,0.0,0.0,0.0,0.0,0.0,0.0,0.0,0.0,0.0,0.0,0.0,0.0,0.0,0.0,0.0,0.0,0.0,0.0,0.0,0.0,0.0,0.0,0.0,0.0,0.0,0.0,0.0,0.0,0.0,0.0,0.0,0.0,0.0,0.0,0.0,0.0,0.0,0.0,0.00279329608939,0.0,0.0,0.0,0.0,0.0,0.0,0.0,0.0,0.0,0.0,0.0,0.0,0.0,0.0,0.0139664804469,0.0,0.0,0.0,0.0,0.0,0.0,0.0,0.0,0.0,0.0,0.0,0.0,0.0,0.0,0.0,0.0,0.0,0.0,0.0,0.0,0.0,0.0,0.0,0.0,0.0,0.0,0.0,0.0,0.0,0.0,0.0,0.0,0.0,0.0,0.0,0.0,0.0,0.0,0.0,0.0,0.0,0.0,0.0,0.0,0.0,0.0,0.0,0.0,0.0,0.0,0.0,0.0,0.0,0.0,0.0,0.0,0.0,0.0,0.0,0.0,0.0,0.0,0.0,0.0,0.0,0.0,0.0,0.0,0.0,0.0,0.0,0.0,0.0,0.0,0.0,0.0,0.0,0.0,0.0,0.0,0.0,0.0,0.0,0.0,0.0,0.0,0.0,0.0,0.0,0.0,0.0,0.0,0.0,0.0,0.0,0.0,0.0,0.0,0.0,0.0,0.0,0.0,0.0,0.0,0.0,0.0,0.0,0.0,0.0,0.0,0.0,0.0,0.0,0.0,0.0,0.0,0.0,0.0,0.0,0.0,0.0,0.0,0.0,0.0,0.0,0.0,0.0,0.0,0.0,0.0,0.0,0.0,0.0,0.0,0.0,0.0,0.0,0.0,0.0,0.0,0.0,0.0,0.0,0.0,0.0,0.0,0.0,0.0,0.0,0.0,0.0,0.0,0.0,0.0,0.0,0.0,0.0,0.0,0.0,0.0,0.0,0.0,0.0,0.0,0.0,0.0,0.0,0.0,0.0,0.0,0.0,0.0,0.0,0.0,0.0,0.0,0.0,0.0,0.0,0.0,0.0,0.0,0.0,0.0,0.0,0.0,0.0,0.0,0.0,0.0,0.0,0.0,0.0,0.0,0.0,0.0,0.0,0.0,0.0,0.0,0.0,0.0,0.0,0.0,0.0,0.0,0.0,0.0,0.0,0.0,0.0,0.0,0.0,0.0,0.0,0.0,0.0,0.0,0.0,0.0,0.0,0.0,0.0,0.0,0.0,0.0,0.0,0.0,0.0,0.0,0.0,0.0,0.0,0.0,0.0,0.0,0.0,0.0,0.0,0.0,0.0,0.0,0.0,0.0,0.0,0.0,0.0,0.0,0.0,0.0,0.0,0.0,0.0,0.0,0.0,0.0,0.0,0.0,0.0,0.0,0.0,0.0,0.0,0.0,0.0,0.0,0.0,0.0,0.0,0.0,0.0,0.0,0.0,0.0,0.0,0.0,0.0,0.0,0.0,0.0,0.0,0.0,0.0,0.0,0.0,0.0,0.0,0.0,0.0,0.0,0.0,0.0,0.0,0.0,0.0,0.0,0.0,0.0,0.0,0.0,0.0,0.0,0.0,0.0,0.0,0.0,0.0,0.0,0.0,0.0,0.0,0.0,0.0,0.0,0.0,0.0,0.0,0.0,0.0,0.0,0.0,0.0,0.0,0.0,0.0,0.0,0.0,0.0,0.0,0.0,0.0,0.0,0.0
ak,0.0,0.000761846716441,0.0,0.0,0.0,0.0,0.0,0.0,0.0,0.0,0.0,0.0,0.0,0.0,0.0,0.0,0.0,0.0,0.0,0.0,0.0,0.0,0.0,0.0,0.0,0.0,0.000152369343288,0.000304738686576,0.0,0.0,0.0,0.0,0.0,0.0,0.0,0.0,0.0,0.0,0.0,0.0,0.0,0.0,0.0,0.0,0.0,0.0,0.0,0.0,0.0,0.0,0.0,0.0,0.0,0.0,0.0,0.0,0.0,0.0,0.0,0.0,0.0,0.0,0.0,0.0,0.0,0.000152369343288,0.0,0.0,0.0,0.0,0.0,0.0,0.0,0.0,0.000152369343288,0.0,0.0,0.0,0.0,0.0,0.0,0.0,0.0,0.0,0.0,0.0,0.0,0.0,0.0,0.0,0.0,0.0,0.0,0.0,0.0,0.0,0.0,0.0,0.0,0.0,0.0,0.0,0.0,0.0,0.0,0.0,0.0,0.00807557519427,0.000457108029864,0.0,0.0,0.00990400731373,0.000152369343288,0.000152369343288,0.0,0.0,0.0,0.0,0.0,0.0,0.0,0.0204174920006,0.0,0.000152369343288,0.0,0.0102087460003,0.0784702117934,0.00243790949261,0.0,0.0,0.0,0.0,0.0,0.0,0.536492457718,0.00243790949261,0.0,0.0,0.0,0.0,0.0,0.0,0.0,0.0,0.0,0.0,0.0,0.0,0.0,0.0,0.0,0.0,0.0,0.0,0.0,0.000304738686576,0.0,0.0,0.0,0.0,0.0,0.0,0.0,0.0,0.0,0.0,0.0,0.0,0.0,0.0,0.0,0.0,0.0,0.0,0.0,0.0,0.0,0.0,0.0,0.0,0.0,0.0,0.0,0.0,0.0,0.0,0.0,0.0,0.0,0.0,0.0,0.0,0.0,0.000152369343288,0.0,0.0,0.0,0.000152369343288,0.0,0.0,0.0,0.0,0.0,0.0,0.0,0.0,0.0,0.0,0.0,0.0,0.0,0.0,0.0,0.0,0.0,0.0,0.0,0.0,0.0,0.0,0.0,0.0,0.0,0.0,0.0,0.0,0.0,0.000152369343288,0.0,0.0390065518818,0.0,0.0,0.0,0.0,0.0,0.0,0.0,0.0,0.0,0.0,0.0,0.0,0.0,0.0,0.0,0.0,0.0,0.0,0.0,0.0,0.0,0.0,0.0,0.0,0.0,0.0,0.0,0.0,0.0,0.0,0.0,0.0,0.0,0.0,0.0,0.0,0.0,0.0,0.0,0.0,0.0,0.0,0.0,0.0,0.0,0.0,0.0,0.0,0.0,0.0,0.0,0.0,0.0,0.0,0.0,0.0,0.0,0.0,0.0,0.0,0.0,0.0,0.0,0.0,0.0,0.0,0.0,0.0,0.0,0.0,0.0,0.0,0.0,0.0,0.0,0.000152369343288,0.0,0.0,0.0,0.0,0.0,0.0,0.0,0.0,0.0,0.0,0.0,0.0,0.0,0.0,0.0,0.000457108029864,0.0,0.0,0.0,0.0,0.0,0.0,0.0,0.0,0.0,0.0,0.0,0.0,0.0,0.0,0.0,0.0,0.0,0.0,0.0,0.0,0.0,0.0,0.0,0.0,0.0,0.0,0.0,0.0,0.0,0.0,0.0,0.0,0.0,0.00396160292549,0.0,0.0,0.0,0.0,0.0,0.0,0.0,0.0,0.0,0.0,0.0,0.0,0.0,0.0,0.0,0.0,0.0,0.0,0.0,0.0,0.0,0.0,0.0,0.0,0.0,0.0,0.0,0.0,0.0,0.0,0.0,0.0,0.0,0.0,0.0,0.0,0.0,0.0,0.0,0.0,0.0,0.0,0.0,0.0,0.0,0.0,0.0,0.0,0.0,0.0,0.0,0.0,0.0,0.0,0.0,0.0,0.0,0.0,0.0,0.0,0.0,0.0,0.0,0.0,0.0,0.0,0.000152369343288,0.0,0.0,0.0,0.0,0.0,0.0,0.0,0.0,0.0,0.0,0.0,0.0,0.0,0.0,0.0,0.0,0.0,0.0,0.0,0.0,0.0,0.0,0.0,0.0,0.0,0.0,0.0,0.0,0.0,0.0,0.0,0.0,0.0,0.0,0.0,0.0,0.0,0.0,0.0,0.0,0.0,0.0,0.0,0.0,0.0,0.0,0.0,0.0,0.0,0.0,0.0,0.0,0.0,0.0,0.0,0.0,0.0,0.0,0.0,0.0,0.0,0.0,0.0,0.0,0.0,0.0,0.0,0.0,0.0,0.0,0.0,0.0,0.0,0.0,0.0,0.0,0.0,0.0,0.0,0.0,0.0,0.0,0.0121895474631,0.0,0.0,0.0,0.0,0.0,0.0,0.0252933109858,0.0,0.0,0.0,0.0,0.0,0.0,0.0,0.0,0.0,0.0,0.0,0.0,0.0,0.0,0.0,0.0,0.0,0.0,0.0,0.0,0.0,0.0,0.0,0.0,0.0,0.0,0.000457108029864,0.0,0.0,0.0,0.0,0.0,0.0,0.0,0.0,0.0,0.0,0.0,0.0,0.0,0.0,0.0,0.0,0.0,0.0,0.0,0.0,0.0,0.0,0.0,0.0,0.0,0.0,0.0,0.0,0.0,0.0,0.0,0.0,0.0,0.0,0.0,0.0,0.0,0.0,0.0,0.0,0.0,0.000152369343288,0.0,0.0,0.0,0.0,0.0,0.0,0.0,0.0,0.0,0.0,0.0,0.0,0.0,0.0,0.0,0.0,0.0,0.0,0.0,0.0,0.0,0.0,0.0,0.0,0.0,0.0,0.0,0.0,0.0,0.0,0.0,0.0,0.0,0.0,0.0,0.0,0.0,0.0,0.0,0.0,0.0,0.0,0.0,0.0,0.0,0.0,0.0,0.0,0.0,0.0,0.0,0.0,0.0,0.0,0.0,0.0,0.0,0.0,0.0,0.0,0.0,0.0,0.0,0.0,0.0,0.0,0.0,0.0,0.0,0.0,0.0,0.0,0.0,0.0,0.0,0.0,0.0,0.0,0.0,0.0,0.0,0.0,0.0,0.0,0.0,0.0,0.0,0.0,0.0,0.0,0.0,0.0,0.000609477373153,0.0,0.0,0.0,0.0,0.0,0.0,0.0,0.0,0.0,0.0,0.0,0.0,0.0,0.0,0.0,0.0,0.0,0.0,0.0,0.0,0.0,0.0,0.0,0.0,0.0,0.0,0.0,0.0283406978516,0.00731372847783,0.00274264817919,0.00213317080603,0.00213317080603,0.0102087460003,0.00243790949261,0.00777083650769,0.0240743562395,0.000609477373153,0.000152369343288,0.00685662044797,0.0132561328661,0.0146274569557,0.0249885722993,0.00365686423892,0.000457108029864,0.000761846716441,0.0121895474631,0.0441871095536,0.00365686423892,0.000152369343288,0.0275788511352,0.0,0.00563766570166,0.0,0.0
al,0.0,0.000264410364886,0.00634584875727,0.000846113167636,0.0,0.0,5.28820729773e-05,0.0,0.000634584875727,0.0,0.0,0.0,0.000687466948704,0.00121628767848,0.0,0.000158646218932,0.0,0.00126916975145,0.0121099947118,0.00111052353252,0.0,0.0,0.0,5.28820729773e-05,0.0,0.0,0.0011634056055,0.00158646218932,0.0,0.0,0.0,0.00100475938657,0.0,0.0,0.0,0.000317292437864,0.0,0.0,0.000317292437864,0.0,0.0,0.00481226864093,0.0,0.0,5.28820729773e-05,0.0,0.0,5.28820729773e-05,0.0,0.0,0.0,0.0,0.0,0.0,0.0,0.0,0.0,0.0,5.28820729773e-05,0.0,0.0,0.000793231094659,0.0011634056055,0.0,0.0,0.0,0.0,0.0,0.00158646218932,0.0,0.0,0.0,0.0,0.0,0.000105764145955,0.0,0.0,0.0,0.000105764145955,0.0,0.0,5.28820729773e-05,0.0,0.0,0.0,0.000317292437864,0.0,0.0,0.0,0.000105764145955,0.0,0.0,0.0,0.0,0.0,0.000317292437864,0.000105764145955,0.0,0.000317292437864,0.00058170280275,0.0,0.000105764145955,0.0,0.0,0.0,0.0,0.0,0.00618720253834,5.28820729773e-05,0.0,0.000264410364886,0.00132205182443,0.0,0.000793231094659,0.0,0.00058170280275,5.28820729773e-05,0.0,0.0,0.0,0.000528820729773,0.00661025912216,0.0,0.000158646218932,0.0,0.000898995240613,0.00497091485986,5.28820729773e-05,0.0,0.000158646218932,0.000211528291909,0.00200951877314,0.0,0.0,0.0203067160233,0.000158646218932,0.000105764145955,0.000264410364886,0.0,0.0,0.000264410364886,0.0,0.000105764145955,5.28820729773e-05,0.0,5.28820729773e-05,5.28820729773e-05,0.000158646218932,0.0,0.0,0.000687466948704,0.0,0.000211528291909,0.000687466948704,0.0,0.0,0.0,0.000105764145955,0.0,5.28820729773e-05,0.0,0.0150713907985,0.0,0.0,0.0,0.0,0.0,0.0,0.0,0.0,0.0,0.0,0.0,0.0,0.0,0.0,0.0,0.0,0.0,0.000105764145955,0.0,0.0,0.0,0.0,0.0,0.0,0.0,0.0,0.0,5.28820729773e-05,0.0,0.0,0.0,0.0,0.0,0.0,0.0,0.000105764145955,0.0,0.0,0.0,0.0,0.0,5.28820729773e-05,0.0,0.0,0.0,0.0,0.0,0.0,0.0,0.0,0.0,0.0,0.0,0.0,0.00994182971973,0.000634584875727,0.00507667900582,0.000370174510841,0.000898995240613,0.000951877313591,0.000793231094659,0.0,0.0,0.0,0.00222104706504,0.0,0.000105764145955,0.00666314119513,0.000211528291909,5.28820729773e-05,0.000475938656795,5.28820729773e-05,0.00285563194077,0.00608143839238,0.0,0.00491803278689,0.0,0.0,0.0,0.000423056583818,0.0,0.0,0.0,0.0,0.0,0.0,0.0,0.0,0.0,0.0,0.0,0.0,0.0,0.0,0.0,0.0,0.0,0.0,0.0,0.0,0.0,0.0,0.0,0.0,0.0,0.0,0.0,0.0,0.0,0.0,0.0,0.00206240084611,0.00132205182443,0.0,0.0,0.0,0.002326811211,0.0,0.0,0.0,0.0,0.0,0.0,0.0,0.0,0.0,0.00237969328398,0.0,0.0,0.0,0.0,0.0,0.000158646218932,0.0,0.0177683765204,0.00708619777895,5.28820729773e-05,0.000158646218932,0.00920148069804,0.0156530936013,0.0,0.0,0.000423056583818,0.00692755156002,0.0,5.28820729773e-05,5.28820729773e-05,0.0,0.00222104706504,0.016234796404,5.28820729773e-05,0.0,0.0,0.016181914331,0.000317292437864,0.00058170280275,0.0,0.000158646218932,0.0,0.00772078265468,0.0,0.445584346906,0.000370174510841,0.0,0.0,0.000423056583818,0.000740349021682,0.0,0.0,0.0,0.000475938656795,0.0,0.0,0.000158646218932,0.0,5.28820729773e-05,0.00872554204125,0.0,0.0,0.0,0.0018508725542,5.28820729773e-05,0.0,0.0,0.0,0.0,0.000158646218932,0.0,0.00687466948704,0.0,0.0,0.0,0.0,0.000105764145955,0.0,0.0,0.0,0.0,0.0,0.0,0.0,0.0,0.0,0.0,0.0,0.0,0.0,0.0,0.0,0.000105764145955,0.0,0.0,0.0,0.0,0.0,0.0,0.0,0.0,0.0,0.0,0.0,0.00058170280275,0.00058170280275,0.0,0.0,0.0,0.0,0.0,0.0,0.0173982020095,0.00105764145955,0.0,0.0,0.000370174510841,0.0,0.0,0.0125330512956,0.0,0.0,0.0,0.0,0.0,0.000528820729773,0.000423056583818,0.0,0.0,0.0,0.0,0.0,0.0,0.000740349021682,0.0,0.0,0.0,5.28820729773e-05,0.0,0.0,5.28820729773e-05,0.0,0.0,0.0,0.000264410364886,0.0,0.0,0.0,0.0,0.0,0.0,0.0,0.000105764145955,0.0,0.0,0.0,0.0,0.0,0.0,0.0,0.0,0.0,0.0,0.0,0.0,0.0,0.0,0.0,0.0,0.0,0.0,0.0,0.0,0.0,0.0,0.0,0.0,0.0,0.0,0.0,0.0,0.0,0.0,0.0,0.00782654680063,0.0,0.0,0.0,0.000105764145955,0.0,0.0,0.0,0.0,0.0,5.28820729773e-05,0.0,0.0,0.0,0.0,0.0,0.0,0.0,0.0,0.0,0.000634584875727,0.0,0.0,0.000105764145955,0.0,0.0,0.0,0.0176097303014,0.0,0.0,0.0,0.000264410364886,0.0,0.0,0.0,5.28820729773e-05,0.0,0.0018508725542,0.0,0.0,0.0,0.0,0.0041776837652,0.0,0.0,0.0,0.0,0.000158646218932,0.0,0.0101004759387,0.000793231094659,5.28820729773e-05,0.0,0.0,0.00438921205711,5.28820729773e-05,0.0,0.0170280274987,0.00121628767848,0.0,0.0,0.0,0.0,5.28820729773e-05,0.0016393442623,5.28820729773e-05,0.0,0.00058170280275,0.000740349021682,0.0,0.0,0.0,0.000158646218932,0.0,0.00391327340032,0.0,0.0211528291909,0.000105764145955,0.0,0.0,0.000898995240613,0.00200951877314,0.0,0.0,0.0,5.28820729773e-05,0.0,0.0,0.0,0.000528820729773,0.0,0.0,0.0,0.0,0.0,0.000687466948704,0.0018508725542,0.0,0.0,0.0,0.0,0.0,0.0,0.0,0.000317292437864,0.0,0.0,0.000105764145955,0.000634584875727,0.0,0.0,0.0,0.0,0.0,0.0,0.0,0.0,0.0,0.00174510840825,0.0,0.0,0.0,0.0,0.0,0.0,0.0,0.0,0.0,0.0,0.0,0.0,0.00333157059757,0.0,0.0,0.0,0.0,0.0,0.0,0.0,0.0,0.0,0.0,0.0,0.0,0.0,0.0,0.0,0.0,0.0,0.0,0.0,0.0,0.0,0.0,0.0,0.0,0.0,0.0,0.0,0.0,0.0,0.0,0.0,0.0,0.0,0.0,0.0,0.0,0.0,0.0,0.0,0.0,0.0,0.0,0.0,0.0,0.0,0.0,0.0,0.0,0.0,0.0,0.0,0.0,0.0,0.0,0.0,0.0,5.28820729773e-05,0.0,0.0,0.0,0.0,0.0,0.0,0.0,0.0,0.0,0.0,0.0,0.0,0.0,0.0,0.0,0.0,0.0,0.0,0.0,0.0,0.0,0.0,0.00216816499207,0.0,0.0,0.0,0.0,0.0,0.0,0.0,0.0,0.0,0.0,0.0,0.0,0.0,0.0,0.0,0.0,0.0,0.0,0.0,0.0,0.0,0.0,0.0,0.0,0.0,0.0,0.0,0.0132734003173,0.00756213643575,0.00682178741407,0.00438921205711,0.00222104706504,0.00666314119513,0.00327868852459,0.00666314119513,0.00936012691698,0.000846113167636,0.0011634056055,0.00296139608673,0.00671602326811,0.00274986779482,0.0088313061872,0.00655737704918,0.000317292437864,0.00222104706504,0.00967741935484,0.018720253834,0.000951877313591,0.00153358011634,0.00988894764675,0.0,0.00190375462718,0.0,0.0
am,0.0,0.0,0.0,0.000257997936017,0.0,0.0,0.00077399380805,0.0,0.00232198142415,0.0,0.000257997936017,0.0,0.0,0.00077399380805,0.0,0.0,0.0,0.000386996904025,0.00103199174407,0.00374097007224,0.0,0.0,0.0,0.0,0.0,0.00928792569659,0.0,0.00386996904025,0.0,0.0,0.0,0.0201238390093,0.0,0.0,0.0,0.0127708978328,0.0,0.000257997936017,0.00219298245614,0.0,0.0,0.00103199174407,0.0,0.0,0.00206398348813,0.0015479876161,0.0,0.00141898864809,0.0,0.0,0.0,0.000128998968008,0.0,0.0046439628483,0.0,0.0,0.0,0.0,0.0,0.0,0.0,0.0,0.0,0.0,0.0,0.0,0.0,0.0,0.0,0.0,0.0,0.0,0.0,0.0,0.0,0.0,0.0,0.0,0.0,0.0,0.0,0.0,0.0,0.0,0.0,0.0,0.0,0.0,0.0,0.0,0.0,0.0,0.0,0.0,0.0,0.0,0.0,0.0,0.0,0.0,0.0,0.0,0.0,0.0,0.0,0.0,0.0,0.0138028895769,0.0,0.0,0.000257997936017,0.0063209494324,0.0,0.0030959752322,0.0,0.0,0.0,0.0,0.0,0.00515995872033,0.00425696594427,0.0384416924665,0.0,0.000128998968008,0.0,0.0030959752322,0.0188338493292,0.000257997936017,0.0,0.0,0.0,0.0,0.0,0.0,0.243937048504,0.000128998968008,0.0,0.0,0.0,0.0,0.0,0.0,0.0,0.0,0.0,0.0,0.0,0.0,0.0,0.000128998968008,0.0,0.0,0.0,0.0,0.0,0.0,0.0,0.0,0.0,0.0,0.0,0.0,0.0,0.0,0.0,0.0,0.0,0.0,0.0,0.0,0.0,0.0,0.0,0.0,0.0,0.0,0.0,0.0,0.0,0.0,0.0,0.0,0.0,0.0,0.0,0.0,0.0,0.0,0.0,0.0,0.0,0.0,0.0,0.0,0.0,0.0,0.0,0.0,0.0,0.0,0.0,0.0,0.0,0.0,0.0,0.0,0.0,0.0,0.0,0.0,0.0,0.0,0.0,0.0,0.0,0.0,0.00103199174407,0.0,0.0,0.000644994840041,0.000128998968008,0.0,0.0,0.0,0.0,0.0,0.0,0.0127708978328,0.0,0.0117389060888,0.0,0.0,0.0,0.0,0.00864293085655,0.0046439628483,0.0,0.0,0.0,0.0,0.0,0.0,0.000386996904025,0.0,0.0,0.0,0.0,0.0,0.0,0.0,0.0,0.0,0.0,0.0,0.0,0.0,0.0,0.0,0.0,0.0,0.0,0.0,0.0,0.0,0.0,0.0,0.0,0.0,0.0,0.0,0.0,0.0,0.0,0.0,0.0,0.0,0.0,0.0,0.0,0.0,0.0,0.0,0.0,0.0,0.0,0.0,0.0,0.0,0.0,0.0,0.0,0.0,0.0,0.0,0.0,0.0,0.0,0.0,0.0,0.0,0.0,0.0114809081527,0.0,0.0,0.0,0.0,0.0,0.0,0.0,0.0,0.0,0.0,0.0,0.0,0.0,0.0,0.0,0.0,0.0,0.0,0.0,0.0,0.0,0.0,0.00077399380805,0.0,0.0,0.00116099071207,0.00283797729618,0.0,0.0,0.0,0.0,0.0,0.0,0.0,0.0,0.0,0.000257997936017,0.0,0.0,0.0,0.000128998968008,0.0,0.0,0.0,0.0,0.0,0.0,0.0,0.0,0.00335397316821,0.0,0.0,0.00515995872033,0.0094169246646,0.0,0.0,0.0,0.0,0.0,0.0,0.0,0.0,0.0,0.0,0.0,0.0,0.0,0.000128998968008,0.0,0.000902992776058,0.0,0.0,0.0,0.0,0.0,0.00219298245614,0.0,0.0,0.0,0.0,0.0,0.0,0.0,0.0,0.0,0.0,0.0,0.0,0.000128998968008,0.0196078431373,0.000128998968008,0.0,0.0,0.00877192982456,0.000515995872033,0.0,0.0127708978328,0.0,0.0,0.0,0.0,0.0,0.000128998968008,0.000644994840041,0.0,0.0,0.000902992776058,0.00141898864809,0.0,0.0,0.000386996904025,0.0030959752322,0.0,0.0,0.00915892672859,0.0,0.0,0.000128998968008,0.0,0.0,0.0,0.00193498452012,0.0015479876161,0.0,0.0,0.0,0.0,0.0,0.0,0.00851393188854,0.0,0.0,0.0,0.0,0.0,0.0,0.0,0.0,0.0,0.0,0.0,0.0,0.0,0.0,0.0,0.0,0.0,0.0,0.0,0.0,0.0,0.0,0.0,0.0,0.0,0.0,0.0,0.0,0.0,0.0,0.0,0.0,0.0,0.0,0.0,0.0,0.0,0.0,0.0,0.0,0.0,0.0,0.0,0.0,0.0,0.0,0.0,0.0,0.0,0.0,0.0,0.0,0.0,0.0,0.0,0.0,0.0,0.0,0.000515995872033,0.0,0.0,0.0,0.0,0.0,0.0,0.0,0.0,0.0,0.00116099071207,0.0,0.0,0.0,0.0,0.00477296181631,0.0,0.0,0.0,0.0,0.0,0.0,0.0168988648091,0.0,0.0,0.0,0.0,0.000128998968008,0.0,0.0,0.0,0.0,0.0,0.0,0.0,0.0,0.0,0.0,0.0,0.0,0.0,0.0,0.0,0.0,0.0,0.0,0.0,0.0,0.0,0.00141898864809,0.0,0.0,0.0,0.0,0.0,0.000128998968008,0.0,0.0,0.0,0.0,0.0,0.0,0.000128998968008,0.0,0.0,0.0,0.0,0.000257997936017,0.00606295149639,0.000644994840041,0.0,0.0,0.0,0.0,0.0,0.0,0.0,0.0,0.0,0.0,0.0,0.0,0.0,0.0,0.0,0.0,0.0,0.0,0.0,0.0,0.0,0.0,0.0,0.0,0.0,0.0,0.0,0.0,0.0,0.0,0.0,0.0,0.0,0.0,0.0,0.0,0.0,0.0,0.0,0.0,0.0,0.0,0.0,0.0,0.0,0.0,0.0,0.0,0.000128998968008,0.0,0.0,0.0,0.0,0.0,0.0,0.0,0.0,0.0,0.0,0.0,0.0,0.0,0.0,0.0,0.0,0.0,0.0,0.0,0.0,0.0,0.0,0.0,0.0,0.0,0.0,0.0,0.0,0.0,0.0,0.0,0.0,0.0,0.0,0.0,0.0,0.0,0.0,0.0,0.0,0.0,0.0,0.0,0.0,0.0,0.0,0.0,0.0,0.0,0.0,0.0,0.0,0.0,0.0,0.0,0.0,0.0,0.0,0.0,0.0,0.0,0.0,0.0,0.0,0.0,0.00245098039216,0.0,0.0,0.0,0.0,0.0,0.0,0.0,0.0,0.0,0.0,0.0,0.0,0.0,0.0,0.0,0.0,0.0,0.0,0.0,0.0,0.0,0.0,0.0,0.0,0.0,0.0,0.0,0.0544375644995,0.0176728586171,0.0134158926729,0.0108359133127,0.00348297213622,0.0131578947368,0.015221878225,0.015608875129,0.0531475748194,0.00116099071207,0.00193498452012,0.00696594427245,0.015995872033,0.0356037151703,0.0168988648091,0.0094169246646,0.00103199174407,0.00696594427245,0.0416666666667,0.0407636738906,0.00348297213622,0.00296697626419,0.0180598555212,0.0,0.0110939112487,0.0,0.0
an,0.0,0.0,0.000210288860426,0.0,0.0,0.0,0.000573515073888,0.0,0.0,0.0,5.73515073888e-05,3.82343382592e-05,0.0,0.0,0.0,0.000133820183907,0.0,0.000152937353037,0.000229406029555,0.000324991875203,0.0,0.0,0.0,0.0,0.0,0.0,0.000535280735629,0.0,0.0,0.0,0.0,0.0,0.0,0.0,0.0,0.0,0.0,0.0,1.91171691296e-05,0.0,0.0,1.91171691296e-05,0.0,0.0,0.0,0.0,0.0,1.91171691296e-05,0.0,0.0,0.0,0.0,0.0,0.0,0.00217935728077,0.0,0.0,0.000669100919536,0.0326712420425,0.0,0.0,0.00317345007551,0.0029058097077,0.0,0.0,1.91171691296e-05,0.0,0.0,0.000267640367814,0.0,0.0,0.0,0.0,0.000802921103443,1.91171691296e-05,0.0,0.0,0.0,0.002064654266,0.0,1.91171691296e-05,0.00198818558948,7.64686765184e-05,1.91171691296e-05,1.91171691296e-05,0.00651895467319,0.000630866581277,0.0,0.0,0.00229406029555,3.82343382592e-05,0.000726452426925,0.00118526448603,0.000516163566499,0.0,0.000879389779961,5.73515073888e-05,0.0,0.00208377143513,0.0168039916649,0.000611749412147,7.64686765184e-05,0.0,1.91171691296e-05,0.0,0.000573515073888,0.0,0.520025234663,3.82343382592e-05,0.0,1.91171691296e-05,7.64686765184e-05,0.0,0.0,0.0,0.0,0.0,0.0,0.0,9.5585845648e-05,0.0,5.73515073888e-05,0.0,0.0,0.0,0.000363226213462,0.000688218088665,0.000401460551722,1.91171691296e-05,0.0,0.000114703014778,0.0,0.0,0.0,0.00193083408209,3.82343382592e-05,0.0,0.0,0.0,1.91171691296e-05,0.0,0.0,0.0,0.0,0.0,0.0,0.0,0.0,0.0,0.0,0.0,0.0,0.0,0.0,0.0,3.82343382592e-05,0.0,0.0,0.0,0.0,0.0,0.0,3.82343382592e-05,0.0,0.0,0.00128085033168,0.0219273929916,0.0,0.0,0.0,0.00143378768472,0.0,0.0,0.00196906842035,0.000439694889981,0.0,3.82343382592e-05,0.0,0.0,0.00185436540557,0.00110879580952,1.91171691296e-05,0.0013573190082,0.0,0.0,0.0,1.91171691296e-05,0.0,0.00349844195072,0.0,0.0,0.0,0.0,0.0,0.0,0.0,0.0,0.0,0.0,0.0,0.0,0.0,0.0,0.000707335257795,0.0,0.0,0.0,0.0,0.0,1.91171691296e-05,0.0,0.0,0.0,0.0,0.0,0.0,0.000420577720851,0.0,0.000172054522166,9.5585845648e-05,0.000994092794739,0.000497046397369,1.91171691296e-05,0.0,0.0,0.0,0.0,0.0,0.000363226213462,0.0016823108834,0.00311609856812,0.0,0.0,0.0,0.00456900342197,0.000745569596054,5.73515073888e-05,0.0,0.0,0.0,0.0,0.0,0.0,0.0,0.0,0.0,0.0,0.0,0.0,0.0,0.0,0.0,0.0,0.0,0.0,0.0,0.0,0.000286757536944,0.0,0.0,0.0,0.0,0.0,0.0,0.0,0.0,0.0,0.0,0.0,0.0,1.91171691296e-05,0.0,0.0,0.000248523198685,0.000860272610832,0.000764686765184,0.0,0.0,0.000516163566499,0.0,0.0,0.000382343382592,0.0,7.64686765184e-05,0.0,0.0,0.0,0.000248523198685,0.00439694889981,0.0,0.0,0.0,0.0,0.0,0.0,0.0,0.00757039897532,0.0,0.0,0.0,0.0,0.000554397904758,0.0,0.0,0.0,0.000305874706074,0.0,0.0,0.0,0.0,0.0,1.91171691296e-05,0.0,0.0,0.0,0.0,0.0,0.0,0.0,0.0,0.0,0.000764686765184,0.0,0.0,0.0,0.0,0.0,0.0,0.000152937353037,0.0,0.0,0.0,0.0,0.0,0.0,0.0,0.0,0.0,1.91171691296e-05,0.0,0.0,0.0,0.0,0.0,0.0,0.0,0.0,0.0,0.0,0.0,0.0,5.73515073888e-05,0.0,0.0,0.000267640367814,0.00531457301803,0.0,0.0,0.0,0.000497046397369,0.0,0.0,0.0,0.0,0.0,0.0156569615171,0.0,0.0,0.0,5.73515073888e-05,0.0,0.000133820183907,0.0,0.0,0.0,0.000688218088665,0.0,0.0,0.0,0.0,0.0,0.0,1.91171691296e-05,1.91171691296e-05,0.0,0.0,0.000420577720851,0.0,0.0,0.0,0.0,0.00263816933988,0.0,0.000229406029555,0.0,0.000382343382592,3.82343382592e-05,0.00661454051884,0.000649983750406,0.0,0.0,0.0,0.0,0.0,0.000822038272573,0.0,0.0,0.0,0.0,0.0,0.0,0.0,0.0,3.82343382592e-05,0.0,0.0,0.0,0.0,0.0,1.91171691296e-05,0.0,0.0,0.0,0.0,0.0,0.0,0.0,0.0,0.0,0.0,0.0,0.0,0.0,0.0,0.0,0.0,0.0,0.0,0.0,0.0,0.0,0.0,0.0,0.0,0.0,0.0,0.0,0.0,0.0,0.0,0.0,0.0,0.00156760786863,0.0,0.0,0.0,0.0,0.0,0.0,0.0,0.0,0.0,0.0,0.0,0.0,0.0,0.0,0.0,0.0,0.0,0.0,0.0,0.0,0.0,0.0,0.0,0.0,0.0,0.0,0.0,0.0,0.0,0.0,0.0,0.0,0.0,0.000114703014778,0.0,3.82343382592e-05,3.82343382592e-05,5.73515073888e-05,0.000573515073888,0.000248523198685,5.73515073888e-05,0.000267640367814,0.0,1.91171691296e-05,0.000286757536944,3.82343382592e-05,0.0,0.00122349882429,0.000497046397369,0.0,0.0,1.91171691296e-05,0.00349844195072,0.0,0.0,0.00902330382917,0.0,1.91171691296e-05,0.0,0.0166128199736,0.00443518323807,1.91171691296e-05,0.0,1.91171691296e-05,0.00202641992774,0.0,0.0,0.000535280735629,0.00422489437764,0.0,0.0,0.00164407654515,0.000172054522166,1.91171691296e-05,0.00695864956317,0.0,0.0,0.000229406029555,0.00487487812805,0.0,0.000898506949091,0.0,1.91171691296e-05,0.0,5.73515073888e-05,0.000133820183907,0.0298227838422,5.73515073888e-05,0.0,0.0,0.0,1.91171691296e-05,0.0,0.0,0.0,0.0,0.0,0.0,0.0,0.0,0.0,0.0,0.0,0.0,5.73515073888e-05,0.00139555334646,0.0,0.0,0.0,0.0,0.0,0.0,0.0,0.0,7.64686765184e-05,0.0,0.0,0.0,0.0,0.0,0.0,0.0,3.82343382592e-05,0.0,0.0,0.0,0.0,0.0,0.0,0.0,0.0,0.0,0.0,0.0,0.0,0.0,0.0,0.0,0.0,0.0,0.0,0.0,0.0,0.0,0.0,0.0,0.0,0.0,5.73515073888e-05,1.91171691296e-05,0.0,0.0,0.0,0.0,0.0,0.0,0.0,0.0,0.0,0.0,0.0,0.0,0.0,0.0,0.0,0.0,0.0,0.0,0.0,0.0,0.0,0.0,0.0,0.0,0.0,0.0,0.0,0.0,0.0,0.0,0.0,0.0,0.0,0.0,0.0,0.0,0.0,0.0,0.0,0.0,0.0,0.0,0.0,0.0,0.0,0.0,3.82343382592e-05,3.82343382592e-05,0.0,0.0,0.0,0.0,1.91171691296e-05,1.91171691296e-05,0.0,0.0,0.0,0.000172054522166,0.0,1.91171691296e-05,0.0,0.0,0.0,7.64686765184e-05,0.00137643617733,0.0,0.0,3.82343382592e-05,0.0,0.0,0.0,0.0303580645778,0.0,0.0,0.0,0.0,1.91171691296e-05,0.0,0.0,0.0,0.0,0.0,0.0,0.0,0.0,0.0,5.73515073888e-05,0.0,0.0,0.0,0.0,0.0,0.0,0.0,0.0,0.0,0.0,0.0,0.0,0.0214112294251,0.00789539085052,0.00428224588503,0.00479840945153,0.00877478063048,0.00428224588503,0.00263816933988,0.0128658548242,0.0195950983578,0.000439694889981,0.000841155441702,0.00292492687683,0.00663365768797,0.00319256724464,0.01076296622,0.00265728650901,0.000133820183907,0.00177789672905,0.00963505324132,0.0254067177732,0.00225582595729,0.000382343382592,0.00990269360913,0.0,0.00590720526104,1.91171691296e-05,0.0
ao,0.0,0.0,0.0,0.0,0.0,0.0,0.0,0.0,0.0,0.0,0.0,0.0,0.0,0.0,0.0,0.0,0.0,0.0,0.0,0.0,0.0,0.0,0.0,0.0,0.0,0.0,0.0,0.0,0.0,0.0,0.0,0.0,0.0,0.0,0.0,0.0,0.0,0.0,0.0,0.0,0.0,0.0,0.0,0.0,0.0,0.0,0.0,0.0,0.0,0.0,0.0,0.0,0.0,0.0,0.0,0.0,0.0,0.0,0.0,0.0,0.0,0.0,0.0,0.0,0.0,0.0,0.0,0.0,0.0,0.0,0.0,0.0,0.0,0.0,0.0,0.0,0.0,0.0,0.0,0.0,0.0,0.0,0.0,0.0,0.0,0.0,0.0,0.0,0.0,0.0,0.0,0.0,0.0,0.0,0.0,0.0,0.0,0.0,0.0,0.0,0.0,0.0,0.0,0.0,0.0,0.0,0.0,0.0238095238095,0.0,0.0,0.0,0.0,0.0,0.0,0.0,0.0,0.0,0.0,0.0,0.0,0.0,0.0,0.0,0.0,0.0,0.0,0.0,0.0,0.0,0.0,0.0,0.0,0.0,0.0,0.0,0.0,0.0,0.0,0.0,0.0,0.0,0.0,0.0,0.0,0.0,0.0,0.0,0.0,0.0,0.0,0.0,0.0,0.0,0.0,0.0,0.0,0.0,0.0,0.0,0.0,0.0,0.0,0.0,0.0,0.0,0.0,0.0,0.0,0.0,0.0,0.0,0.0,0.0,0.0,0.0,0.0,0.0,0.0,0.0,0.0,0.0,0.0,0.0,0.0,0.0,0.0,0.0,0.0,0.0,0.0,0.0,0.0,0.0,0.0,0.0,0.0,0.0,0.0,0.0,0.0,0.0,0.0,0.0,0.0,0.0,0.0,0.0,0.047619047619,0.0,0.0,0.0,0.0,0.0,0.0,0.0,0.0,0.0,0.0,0.0,0.0,0.0,0.0,0.0,0.0,0.0,0.0,0.0,0.0,0.0,0.0,0.0,0.0,0.0,0.0,0.0,0.0,0.0,0.0,0.0,0.0,0.0,0.0,0.0,0.0,0.0,0.0,0.0,0.0,0.0,0.0,0.0,0.0,0.0,0.0,0.0,0.0,0.0,0.0,0.0,0.0,0.0,0.0,0.0,0.0,0.0,0.0,0.0,0.0,0.0,0.0,0.0,0.0,0.0,0.0,0.0,0.0,0.0,0.0,0.0,0.0,0.0,0.0,0.0,0.0,0.0,0.0,0.0,0.0,0.0,0.0,0.0,0.0,0.0,0.0,0.0,0.0,0.0,0.0,0.0,0.0,0.0238095238095,0.357142857143,0.0,0.0,0.0,0.0,0.0,0.0,0.0,0.0,0.0,0.0,0.0,0.0,0.0,0.0238095238095,0.0,0.0,0.0,0.0,0.0,0.0,0.0,0.190476190476,0.0,0.0,0.0,0.0,0.0,0.0,0.0,0.0,0.0,0.0,0.0,0.0,0.0,0.0,0.0,0.0,0.0,0.0,0.0,0.0,0.0,0.0,0.0,0.0,0.0,0.0,0.0,0.0,0.0,0.0,0.0,0.047619047619,0.0,0.0,0.0,0.0238095238095,0.0,0.0,0.0,0.0,0.0,0.0,0.0,0.0,0.0,0.0,0.0,0.0,0.0,0.0,0.0,0.0,0.0,0.0,0.0,0.0,0.0,0.0,0.0,0.0,0.0,0.0,0.0,0.0,0.0,0.0,0.0,0.0,0.0,0.0,0.0,0.0,0.0,0.0,0.0,0.0,0.0,0.0,0.0,0.0,0.0,0.0,0.0,0.0,0.0,0.0,0.0,0.0,0.0,0.0,0.0,0.0,0.0,0.0,0.0,0.0,0.0,0.0,0.0,0.0,0.0,0.0,0.0,0.0,0.0,0.0,0.0,0.0,0.0,0.0,0.0,0.0,0.0,0.0,0.0,0.0,0.0,0.0,0.0,0.0,0.0,0.0,0.0,0.0,0.0,0.0,0.0,0.0,0.0,0.0,0.0,0.0,0.0,0.0,0.0,0.0,0.0,0.0,0.166666666667,0.0,0.0,0.0,0.0,0.0,0.0,0.0,0.0,0.0,0.0,0.0,0.0,0.0,0.0,0.0,0.0,0.0,0.0,0.0,0.0,0.0,0.0,0.0,0.0,0.0,0.0,0.0,0.0,0.0,0.0,0.0,0.0,0.0,0.0,0.0,0.0,0.0,0.0,0.0,0.0,0.0,0.0,0.0,0.0,0.0,0.0,0.0,0.0,0.0,0.0952380952381,0.0,0.0,0.0,0.0,0.0,0.0,0.0,0.0,0.0,0.0,0.0,0.0,0.0,0.0,0.0,0.0,0.0,0.0,0.0,0.0,0.0,0.0,0.0,0.0,0.0,0.0,0.0,0.0,0.0,0.0,0.0,0.0,0.0,0.0,0.0,0.0,0.0,0.0,0.0,0.0,0.0,0.0,0.0,0.0,0.0,0.0,0.0,0.0,0.0,0.0,0.0,0.0,0.0,0.0,0.0,0.0,0.0,0.0,0.0,0.0,0.0,0.0,0.0,0.0,0.0,0.0,0.0,0.0,0.0,0.0,0.0,0.0,0.0,0.0,0.0,0.0,0.0,0.0,0.0,0.0,0.0,0.0,0.0,0.0,0.0,0.0,0.0,0.0,0.0,0.0,0.0,0.0,0.0,0.0,0.0,0.0,0.0,0.0,0.0,0.0,0.0,0.0,0.0,0.0,0.0,0.0,0.0,0.0,0.0,0.0,0.0,0.0,0.0,0.0,0.0,0.0,0.0,0.0,0.0,0.0,0.0,0.0,0.0,0.0,0.0,0.0,0.0,0.0,0.0,0.0,0.0,0.0,0.0,0.0,0.0,0.0,0.0,0.0,0.0,0.0,0.0,0.0,0.0,0.0,0.0,0.0,0.0,0.0,0.0,0.0,0.0,0.0,0.0,0.0,0.0,0.0,0.0,0.0,0.0,0.0,0.0,0.0,0.0,0.0,0.0,0.0,0.0,0.0,0.0,0.0,0.0,0.0,0.0,0.0,0.0,0.0,0.0,0.0,0.0,0.0,0.0,0.0,0.0,0.0,0.0,0.0,0.0,0.0,0.0,0.0,0.0,0.0,0.0,0.0,0.0,0.0,0.0,0.0,0.0,0.0,0.0,0.0,0.0,0.0,0.0,0.0,0.0,0.0,0.0,0.0,0.0,0.0,0.0,0.0,0.0,0.0
ap,0.0,0.00798403193613,0.0129740518962,0.0,0.0,0.0,0.0,0.0,0.0,0.0,0.0,0.000332667997339,0.0,0.0,0.0,0.000665335994677,0.0,0.0103127079175,0.0,0.0,0.0,0.0,0.0,0.0,0.0,0.0,0.0,0.0,0.0,0.0,0.0,0.0,0.0,0.0,0.0,0.0,0.0,0.0,0.0,0.0,0.0,0.0,0.0,0.0,0.0,0.0,0.0,0.0,0.0,0.0,0.0,0.0,0.0,0.0,0.0,0.0,0.0,0.0,0.0,0.0,0.0,0.0,0.0,0.0,0.0,0.0,0.0,0.0,0.000332667997339,0.0,0.0,0.0,0.0,0.0,0.0,0.0,0.0,0.0,0.0,0.0,0.0,0.0,0.0,0.0,0.0,0.0,0.0,0.0,0.0,0.0,0.0,0.0,0.0,0.0,0.0,0.0,0.0,0.0,0.000998003992016,0.0,0.0,0.0,0.0,0.0,0.0,0.0,0.0,0.0133067198935,0.000332667997339,0.000332667997339,0.0,0.00465735196274,0.0,0.0,0.0,0.0,0.0,0.0,0.0,0.00565535595476,0.00765136393879,0.00332667997339,0.0,0.0,0.0,0.042248835662,0.0256154357951,0.00133067198935,0.0,0.0,0.0,0.000332667997339,0.0,0.0,0.0688622754491,0.000332667997339,0.0,0.0,0.0,0.0,0.0,0.0,0.0,0.0,0.0,0.0,0.0,0.0,0.0,0.0,0.0,0.0,0.000332667997339,0.0,0.0,0.0,0.0,0.0,0.0,0.0,0.0,0.0,0.0,0.0,0.0,0.0,0.0,0.0,0.0,0.0,0.0,0.0,0.0,0.0,0.0,0.0,0.0,0.0,0.0,0.0,0.0,0.0,0.0,0.0,0.0,0.0,0.0,0.0,0.0,0.0,0.0,0.0,0.0,0.000665335994677,0.0,0.0,0.0,0.000665335994677,0.0,0.0,0.000332667997339,0.0,0.000998003992016,0.00266134397871,0.0,0.0,0.0,0.000998003992016,0.0,0.0,0.0,0.0,0.0,0.000998003992016,0.0,0.00399201596806,0.000332667997339,0.0,0.0,0.0,0.0116433799069,0.0,0.0,0.0,0.0,0.0,0.0,0.000998003992016,0.0,0.00798403193613,0.0,0.0,0.0,0.0,0.00299401197605,0.0189620758483,0.000665335994677,0.0,0.0,0.0,0.0,0.0,0.0,0.000332667997339,0.0,0.0,0.0,0.0,0.0,0.0,0.0,0.0,0.0,0.0,0.0,0.0,0.0,0.0,0.0,0.0,0.0,0.0,0.0,0.0,0.0,0.0,0.0,0.0,0.0,0.0,0.0,0.0,0.0,0.0,0.0,0.0,0.0,0.0,0.00565535595476,0.0,0.0,0.0,0.0,0.0,0.0,0.0,0.0,0.0,0.0,0.0,0.0,0.0,0.0,0.0,0.0,0.0,0.0,0.00232867598137,0.0,0.0,0.0,0.0149700598802,0.0,0.0,0.0,0.000998003992016,0.0,0.0,0.0,0.0,0.0,0.0,0.0,0.0,0.0,0.0,0.0,0.0,0.0,0.0,0.0,0.0149700598802,0.0,0.0,0.0,0.0,0.0,0.0,0.000665335994677,0.0,0.0,0.0,0.0,0.0,0.0,0.0,0.0,0.0,0.0,0.0,0.0,0.0,0.0,0.0,0.0,0.0,0.0,0.0,0.0,0.0,0.0,0.0,0.0,0.0,0.0,0.0,0.0,0.0,0.0,0.0,0.0,0.0,0.0,0.0,0.0,0.0,0.0,0.0,0.0,0.0,0.0,0.0,0.0,0.0,0.0,0.0,0.0,0.0,0.0,0.0,0.000332667997339,0.0,0.0,0.0,0.0,0.0,0.0,0.0,0.0,0.0153027278776,0.0,0.0256154357951,0.0,0.00166333998669,0.0,0.000665335994677,0.000998003992016,0.00166333998669,0.00499001996008,0.0,0.0,0.0,0.0,0.0,0.0,0.0279441117764,0.0,0.0,0.00964737192282,0.118429807053,0.0,0.0,0.000665335994677,0.0399201596806,0.0,0.0,0.0279441117764,0.0,0.0,0.0202927478377,0.0,0.0,0.0738522954092,0.0,0.0,0.000332667997339,0.0,0.0,0.0,0.080505655356,0.0,0.0,0.0,0.0,0.0,0.0,0.0,0.0,0.0,0.0,0.0,0.0,0.0,0.0,0.0,0.0,0.0,0.0,0.0,0.0,0.0,0.0,0.0,0.0,0.0,0.0,0.0,0.0,0.0,0.0,0.0,0.0,0.0,0.0,0.0,0.0,0.0,0.00565535595476,0.0,0.0,0.0,0.0,0.0,0.00299401197605,0.0,0.0,0.0,0.0,0.0,0.0,0.0,0.0,0.0,0.0,0.0,0.0,0.0,0.0,0.0,0.000332667997339,0.00166333998669,0.0,0.0,0.0,0.000998003992016,0.0,0.0,0.0,0.0,0.0,0.000665335994677,0.0,0.0,0.0,0.0,0.0059880239521,0.0,0.0,0.0,0.0,0.0,0.0,0.0372588157019,0.0502328675981,0.0,0.0,0.0,0.00133067198935,0.0,0.0,0.0,0.022621423819,0.0,0.0,0.00199600798403,0.0,0.000998003992016,0.0,0.0,0.0,0.0,0.000332667997339,0.0,0.00166333998669,0.0,0.0,0.0,0.0,0.0,0.018629407851,0.0,0.0,0.000332667997339,0.0,0.0,0.0,0.0,0.0,0.0,0.0,0.0,0.00632069194943,0.0,0.0,0.0,0.0,0.0,0.0,0.000332667997339,0.0,0.0,0.0,0.0,0.0,0.0,0.0,0.0,0.0,0.0,0.0,0.0,0.0,0.0,0.0,0.0,0.0,0.0,0.0,0.0,0.0,0.0,0.0,0.0,0.0,0.0,0.0,0.0,0.0,0.0,0.0,0.0,0.0,0.0,0.0,0.0,0.0,0.0,0.0,0.0,0.0,0.0,0.0,0.00133067198935,0.0,0.0,0.0,0.0,0.0,0.0,0.0,0.0,0.0,0.0,0.0,0.0,0.0,0.0,0.0,0.0,0.0,0.0,0.0,0.0,0.0,0.0,0.0,0.0,0.0,0.0,0.0,0.0,0.0,0.0,0.0,0.0,0.0,0.0,0.0,0.0,0.0,0.0,0.0,0.0,0.0,0.0,0.0,0.0,0.0,0.0,0.0,0.0,0.0,0.0,0.0,0.0,0.0,0.0,0.0,0.0,0.0,0.0,0.0,0.0,0.0,0.0,0.0,0.0,0.0,0.0,0.0,0.0,0.0,0.0,0.0,0.0,0.0,0.0,0.0,0.0,0.0,0.0,0.0,0.0,0.0,0.0,0.0,0.0,0.0,0.0,0.0,0.0,0.0,0.0,0.0,0.0,0.0,0.0,0.0,0.0,0.0,0.0,0.0,0.0129740518962,0.00166333998669,0.000665335994677,0.000998003992016,0.000332667997339,0.00266134397871,0.000665335994677,0.00299401197605,0.00964737192282,0.000332667997339,0.000332667997339,0.00133067198935,0.00499001996008,0.00166333998669,0.0113107119095,0.00199600798403,0.000332667997339,0.00133067198935,0.00232867598137,0.0179640718563,0.000998003992016,0.0,0.00665335994677,0.0,0.000665335994677,0.0,0.0
aq,0.0,0.0,0.0,0.0,0.0,0.0,0.0,0.0,0.0,0.0,0.0,0.0,0.0,0.0,0.0,0.0,0.0,0.0,0.0,0.0,0.0,0.0,0.0,0.0,0.0,0.0,0.0,0.0,0.0,0.0,0.0,0.0,0.0,0.0,0.0,0.0,0.0,0.0,0.0,0.0,0.0,0.0,0.0,0.0,0.0,0.0,0.0,0.0,0.0,0.0,0.0,0.0,0.0,0.0,0.0,0.0,0.0,0.0,0.0,0.0,0.0,0.0,0.0,0.0,0.0,0.0,0.0,0.0,0.0,0.0,0.0,0.0,0.0,0.0,0.0,0.0,0.0,0.0,0.0,0.0,0.0,0.0,0.0,0.0,0.0,0.0,0.0,0.0,0.0,0.0,0.0,0.0,0.0,0.0,0.0,0.0,0.0,0.0,0.0,0.0,0.0,0.0,0.0,0.0,0.0,0.0,0.0,0.0,0.0,0.0,0.0,0.0,0.0,0.0,0.0,0.0,0.0,0.0,0.0,0.0,0.0,0.0,0.0,0.0,0.0,0.0,0.0,0.0,0.0,0.0,0.0,0.0,0.0,0.0,0.0,0.0,0.0,0.0,0.0,0.0,0.0,0.0,0.0,0.0,0.0,0.0,0.0,0.0,0.0,0.0,0.0,0.0,0.0,0.0,0.0,0.0,0.0,0.0,0.0,0.0,0.0,0.0,0.0,0.0,0.0,0.0,0.0,0.0,0.0,0.0,0.0,0.0,0.0,0.0,0.0,0.0,0.0,0.0,0.0,0.0,0.0,0.0,0.0,0.0,0.0,0.0,0.0,0.0,0.0,0.0,0.0,0.0,0.0,0.0,0.0,0.0,0.0,0.0,0.0,0.0,0.0,0.0,0.0,0.0,0.0,0.0,0.0,0.0,0.0,0.0,0.0,0.0,0.0,0.0,0.0,0.0,0.0,0.0,0.0,0.0,0.0,0.0,0.0,0.0,0.0,0.0,0.0,0.0,0.0,0.0,0.0,0.0,0.0,0.0,0.0,0.0,0.0,0.0,0.0,0.0,0.0,0.0,0.0,0.0,0.0,0.0,0.0,0.0,0.0,0.0,0.0,0.0,0.0,0.0,0.0,0.0,0.0,0.0,0.0,0.0,0.0,0.0,0.0,0.0,0.0,0.0,0.0,0.0,0.0,0.0,0.0,0.0,0.0,0.0,0.0,0.0,0.0,0.0,0.0,0.0,0.0,0.0,0.0,0.0,0.0,0.0,0.0,0.0,0.0,0.0,0.0,0.0,0.0,0.0,0.0,0.0,0.0,0.0,0.0,0.0,0.0,0.0,0.0,0.0,0.0,0.0,0.0,0.0,0.0,0.0,0.0,0.0,0.0,0.0,0.0,0.0,0.0,0.0,0.0,0.0,0.0,0.0,0.0,0.0,0.0,0.0,0.0,0.0,0.0,0.0,0.0,0.0,0.0,0.0,0.0,0.0,0.0,0.0,0.0,0.0,0.0,0.0,0.0,0.0,0.0,0.0,0.0,0.0,0.0,0.0,0.0,0.0,0.0,0.0,0.0,0.0,0.0,0.0,0.0,0.0,0.0,0.0,0.0,0.0,0.0,0.0,0.0,0.0,0.0,0.0,0.0,0.0,0.0,0.0,0.0,0.0,0.0,0.0,0.0,0.0,0.0,0.0,0.0,0.0,0.0,0.0,0.0,0.0,0.0,0.0,0.0,0.0,0.0,0.0,0.0,0.0,0.0,0.0,0.0,0.0,0.0,0.0,0.0,0.0,0.0,0.0,0.0,0.0,0.0,0.0,0.0,0.0,0.0,0.0,0.0,0.0,0.0,0.0,0.0,0.0,0.0,0.0,0.0,0.0,0.0,0.0,0.0,0.0,0.0,0.0,0.0,0.0,0.0,0.0,0.0,0.0,0.0,0.0,0.0,0.0,0.0,0.0,0.0,0.0,0.0,0.0,0.0,0.0,0.0,0.0,0.0,0.0,0.0,0.0,0.0,0.0,0.0,0.0,0.0,0.0,0.0,0.0,0.0,0.0,0.0,0.0,0.0,0.0,0.0,0.0,0.0,0.0,0.0,0.0,0.0,0.0,0.0,0.0,0.0,0.0,0.0,0.0,0.0,0.0,0.0,0.0,0.0,0.0,0.0,0.0,0.0,0.0,0.0,0.0,0.0,0.0,0.0,0.0,0.0,0.0,0.0,0.0,0.0,0.0,0.0,0.0,0.0,0.0,0.0,0.0,0.0,0.0,0.0,0.0,0.0,0.0,0.0,0.0,0.0,0.0,0.0,0.0,0.0,0.0,0.0,0.0,0.0,0.0,0.0,0.0,0.0,0.0,0.0,0.0,0.0,0.0,0.0,0.0,0.0,0.0,0.146341463415,0.0,0.0,0.0,0.609756097561,0.0,0.0,0.0,0.243902439024,0.0,0.0,0.0,0.0,0.0,0.0,0.0,0.0,0.0,0.0,0.0,0.0,0.0,0.0,0.0,0.0,0.0,0.0,0.0,0.0,0.0,0.0,0.0,0.0,0.0,0.0,0.0,0.0,0.0,0.0,0.0,0.0,0.0,0.0,0.0,0.0,0.0,0.0,0.0,0.0,0.0,0.0,0.0,0.0,0.0,0.0,0.0,0.0,0.0,0.0,0.0,0.0,0.0,0.0,0.0,0.0,0.0,0.0,0.0,0.0,0.0,0.0,0.0,0.0,0.0,0.0,0.0,0.0,0.0,0.0,0.0,0.0,0.0,0.0,0.0,0.0,0.0,0.0,0.0,0.0,0.0,0.0,0.0,0.0,0.0,0.0,0.0,0.0,0.0,0.0,0.0,0.0,0.0,0.0,0.0,0.0,0.0,0.0,0.0,0.0,0.0,0.0,0.0,0.0,0.0,0.0,0.0,0.0,0.0,0.0,0.0,0.0,0.0,0.0,0.0,0.0,0.0,0.0,0.0,0.0,0.0,0.0,0.0,0.0,0.0,0.0,0.0,0.0,0.0,0.0,0.0,0.0,0.0,0.0,0.0,0.0,0.0,0.0,0.0,0.0,0.0,0.0,0.0,0.0,0.0,0.0,0.0,0.0,0.0,0.0,0.0,0.0,0.0,0.0,0.0,0.0,0.0,0.0,0.0,0.0,0.0,0.0,0.0,0.0,0.0,0.0,0.0,0.0,0.0,0.0,0.0,0.0,0.0,0.0,0.0,0.0,0.0,0.0,0.0,0.0
ar,0.0,0.000633468238606,0.00126693647721,0.000563082878761,0.0,0.0,0.000739046278374,0.0,3.51926799226e-05,0.0,0.0,0.000422312159071,0.000387119479148,0.000633468238606,7.03853598452e-05,3.51926799226e-05,3.51926799226e-05,0.0,0.00014077071969,0.00172444131621,0.0,0.0,3.51926799226e-05,0.0,0.0,0.0,0.000211156079535,0.00161886327644,0.0,0.0,0.0,0.000492697518916,0.0,0.0,0.0,0.000668660918529,0.0,0.0,0.000774238958297,0.0,0.0,0.00151328523667,0.0,0.0,0.0,0.0,0.0,0.000774238958297,0.0,0.0,0.0,0.0,0.0,0.000246348759458,0.000387119479148,0.0,0.0,0.0,0.00439908499032,0.0,0.0,0.0104170332571,0.0029561851135,0.0,0.0,0.0,0.0,0.0,0.0,0.0,0.0,3.51926799226e-05,0.0,0.0,0.0018652120359,0.0,0.0,0.0,0.0,0.0,7.03853598452e-05,0.000351926799226,3.51926799226e-05,3.51926799226e-05,0.0,0.00524370930846,0.000246348759458,0.0,0.000316734119303,0.00612352630653,0.0,0.0,0.00263945099419,3.51926799226e-05,0.000457504838993,0.0141826500088,0.0,0.0,0.000211156079535,0.0118599331339,0.0,3.51926799226e-05,0.0,0.0,0.0,0.00123174379729,0.0,0.0749252155552,3.51926799226e-05,0.00014077071969,0.00014077071969,0.00175963399613,0.000246348759458,0.00154847791659,3.51926799226e-05,0.000175963399613,0.000211156079535,0.0,0.0,0.0029561851135,0.0,0.00612352630653,3.51926799226e-05,7.03853598452e-05,0.0,0.00341368995249,0.00918528945979,0.00299137779342,3.51926799226e-05,0.0,0.012739750132,0.0,0.0,0.0,0.154777406299,3.51926799226e-05,0.0,0.0,3.51926799226e-05,0.00014077071969,0.0,0.0,0.0,0.000175963399613,0.0,0.0,0.000281541439381,0.0,0.0,3.51926799226e-05,0.0,0.0,0.0,0.000211156079535,0.0,0.00351926799226,0.0,0.0,0.0,0.0,0.0,0.000527890198839,0.00373042407179,0.0,0.0,0.00154847791659,0.0140066866092,0.0,0.0,0.0,0.000246348759458,0.0,0.0,0.0,0.0,0.0,0.000527890198839,0.0,0.0,0.000105578039768,0.0,0.0,0.00341368995249,0.0,0.0,0.0,0.000175963399613,0.0,0.0,0.0,0.0,0.0,0.0,7.03853598452e-05,0.0,0.0,0.0,0.0,0.0,0.0,0.0,0.0,0.0,0.0,0.0,0.0,0.0,0.0,0.0,0.0,0.0,0.0,0.0,0.0,0.0,0.0,0.00144289987683,0.00014077071969,0.000105578039768,0.0,0.00267464367412,0.0,0.000351926799226,0.0,0.0,0.0,0.0,0.000316734119303,0.0,0.0134436037304,0.00165405595636,3.51926799226e-05,0.0,0.0,0.00615871898645,0.00397677283125,0.000457504838993,0.0,0.0,0.0,0.0,3.51926799226e-05,3.51926799226e-05,0.0,0.0,0.0,0.0,0.0,0.0,0.0,0.0,0.0,0.0,0.0,0.0,0.0,0.0,0.000105578039768,0.0,0.0,0.0,0.0,0.0,0.0,0.0,0.0,0.0,0.0,0.0,0.0,0.000105578039768,0.0,0.0,0.0014077071969,0.00270983635404,0.0,0.0,0.0,0.000281541439381,0.0,0.0,0.000879816998064,3.51926799226e-05,0.00144289987683,0.0,0.0,0.0,0.0,0.00235790955481,0.0,0.0,0.0,7.03853598452e-05,0.0,3.51926799226e-05,0.0,0.020904451874,0.000879816998064,0.0,0.0,0.000211156079535,0.00510293858877,0.0,0.0,0.0,0.00394158015133,0.0,0.0,0.0,0.0,0.0,0.000879816998064,0.0,0.0,0.0,0.000774238958297,0.0,0.0,0.0,0.0,0.0,0.00450466303009,0.0,0.00408235087102,0.000879816998064,0.0,0.0,0.00200598275559,0.00422312159071,0.000281541439381,3.51926799226e-05,3.51926799226e-05,0.00211156079535,0.0,0.0,0.000527890198839,0.0,0.0,0.00281541439381,0.0,0.0,0.0,0.0105226112969,0.000211156079535,0.0,0.0,0.0,0.0,0.00256906563435,0.0,0.0120007038536,0.00102058771775,0.0,0.0,0.00151328523667,0.00527890198839,0.0,0.0,0.0,0.00211156079535,0.0,0.0,0.0,0.0,0.0,0.0,0.0,0.0,0.0,0.000351926799226,7.03853598452e-05,0.0,0.0,0.0,0.0,0.0,0.0,0.00373042407179,0.0,7.03853598452e-05,0.0,0.0,0.0,0.000105578039768,0.0,0.0,0.000105578039768,0.0,0.0,0.000598275558684,0.0,0.00123174379729,3.51926799226e-05,0.0,0.0,0.0,0.000175963399613,0.0,0.00116135843745,0.0,3.51926799226e-05,0.0,0.0,0.0,0.0,0.0,0.0,0.0,0.00014077071969,0.00112616575752,0.0,3.51926799226e-05,0.0,0.000281541439381,0.0,0.0,0.000175963399613,0.0,0.000105578039768,0.0,3.51926799226e-05,3.51926799226e-05,3.51926799226e-05,7.03853598452e-05,3.51926799226e-05,0.0,0.0,0.0,0.0,0.000105578039768,0.0,0.0029561851135,0.0,0.0,0.0,0.0,0.0,0.0,0.0,0.0,0.0,0.0,0.0,0.0,0.0,0.0,0.0,0.0,0.0,0.0,0.0,0.0,0.000774238958297,0.0,0.0,0.0,0.0,0.0,0.0,0.00876297730072,0.0,0.0,0.0010909730776,0.00802393102235,0.0,0.0,3.51926799226e-05,0.0170332570825,0.0,0.0,0.0,0.0,0.0,0.00337849727257,0.0,0.0,0.0,0.00014077071969,0.0,0.0,0.0,0.0,0.0,0.0232623614288,0.0,3.51926799226e-05,0.00014077071969,0.0,3.51926799226e-05,0.000105578039768,0.000985395037832,0.0,0.0,0.00225233151504,0.0,0.0,0.0,3.51926799226e-05,0.0,0.0,0.000809431638219,7.03853598452e-05,0.0,0.0,0.000105578039768,0.00285060707373,0.000598275558684,0.0,0.0,0.0,0.0,0.0,0.051838817526,0.00112616575752,0.000387119479148,3.51926799226e-05,0.0,0.0073200774239,0.0,3.51926799226e-05,0.0160478620447,0.00988914305824,0.0,0.0,0.00183001935597,3.51926799226e-05,0.000879816998064,7.03853598452e-05,3.51926799226e-05,0.0,0.00014077071969,0.013197254971,0.0,0.000844624318142,0.0,3.51926799226e-05,0.0,0.00225233151504,0.0,0.0883688192856,0.0,0.0,0.0,0.0,0.0,0.0,0.0,0.0,0.0,0.0,0.0,3.51926799226e-05,0.000774238958297,0.0,0.0,0.0,0.0,0.0,0.0010909730776,0.0,0.0,0.0,0.0,0.0,0.0,0.0,0.0,0.0,0.0,0.0,0.000387119479148,0.00464543374978,0.0,0.0,0.0,0.000175963399613,0.0,0.0,0.0,0.0,0.0,3.51926799226e-05,0.0,0.0,0.0,0.0,0.0,0.0,0.0,0.0,0.0,0.0,0.0,0.0,0.000281541439381,0.0,0.0,0.0,3.51926799226e-05,0.0,0.0,7.03853598452e-05,0.00636987506599,0.0,0.0,0.0,0.0,0.0,7.03853598452e-05,0.0,0.0,0.0,0.0,0.0,0.0,0.0,0.0,0.0,0.0,0.0,0.0,0.0,0.0,0.0,0.0,0.0,0.0,0.0,0.0,0.0,0.0,0.0,0.0,0.0,0.0,0.0,0.0,0.0,0.0,0.0,0.0,0.0,0.0,0.0,0.0,0.0,0.0,0.0,0.0,7.03853598452e-05,0.0,0.0,0.0,0.0,0.0,3.51926799226e-05,0.00014077071969,0.0,0.0,0.0,0.0,0.0,0.0,0.0,0.0,0.0,0.000281541439381,0.0,0.0,0.0,0.0,0.0,0.0,0.0,0.0123878233327,0.0,0.0,0.0,0.0,0.0,0.0,0.0,0.0,0.0,0.0,0.0,0.0,0.0,0.0,0.0,0.0,0.0,0.0,0.0,0.0,0.0,0.0,0.0,0.0,0.0,0.0,0.0,0.0223473517508,0.0073200774239,0.00334330459264,0.00292099243357,0.00147809255675,0.0076368115432,0.00193559739574,0.0132324476509,0.0185465423192,0.000527890198839,0.000668660918529,0.00450466303009,0.0166813302833,0.00735527010382,0.0100299137779,0.00263945099419,0.000316734119303,0.00144289987683,0.00879816998064,0.0358613408411,0.00235790955481,0.000422312159071,0.0116839697343,0.0,0.00714411402428,3.51926799226e-05,0.0
as,0.0,0.0,0.0,0.0,0.0,0.0,0.0,0.0,0.0,0.0,0.0,5.36250536251e-05,0.0,0.00375375375375,0.0,0.0,0.0,5.36250536251e-05,0.0,0.0,0.0,0.0,0.0,0.0,0.0,0.0,5.36250536251e-05,0.0,0.0,0.0,0.0,0.0,0.0,0.0,0.0,0.0,0.0,0.0,0.0,0.0,0.0,0.0,0.0,0.0,0.0,0.0,0.0,0.0,0.0,0.0,0.0,0.0,0.0,0.0,0.00627413127413,0.0,0.0,0.0,0.00117975117975,0.0,0.0,0.0,0.000697125697126,0.0,0.0,5.36250536251e-05,0.0,0.0,0.000268125268125,0.0,0.0,0.0002145002145,0.0,0.0,0.000268125268125,0.0,0.0,0.0,0.0,0.0,5.36250536251e-05,0.0,0.0,0.0,0.0,0.0,0.0,0.0,0.0,0.0,0.0,0.0,0.0,0.0,0.0,0.0,0.0,0.0,5.36250536251e-05,0.0,0.0,0.0,0.0,0.0,0.0,0.0,0.0,0.00702488202488,0.0,0.000429000429,0.0,0.00166237666238,0.0,5.36250536251e-05,0.0,0.0,0.0,0.0,0.0,0.000858000858001,0.000750750750751,0.000911625911626,0.0,0.0,0.0,0.000750750750751,0.0045045045045,0.00123337623338,0.0,0.000160875160875,0.0,0.0,5.36250536251e-05,0.0,0.0511583011583,0.0,0.0,0.0,0.0,0.0,0.0,0.0,0.0,0.0,0.0,0.0,0.0,0.0,0.0,0.0,0.0,0.0,0.0,0.0,0.0,0.0,0.0,0.0,0.0,0.0,0.0,0.0,0.0,0.0,0.0,0.0,0.0,0.0,0.0,0.0,0.0,0.0,0.0,0.0,0.0,0.0,0.0,0.0,0.0,0.0,0.0,0.0,0.0,0.0,0.0,0.0,0.0,0.0,0.0,0.00198412698413,0.0,0.0,0.00176962676963,0.00294937794938,0.000643500643501,0.0,0.0,0.00745388245388,0.0,0.0,0.000268125268125,0.0,0.000536250536251,0.000750750750751,0.0,0.0,0.0,0.0,0.0,0.0,0.0,5.36250536251e-05,0.0,0.0002145002145,0.0,0.00723938223938,0.0002145002145,0.0,0.000160875160875,0.00353925353925,0.000965250965251,0.0,0.0,0.0,0.0,0.0,0.0,0.00219862719863,0.000160875160875,0.00294937794938,0.00627413127413,0.0,0.0,0.0,0.000429000429,0.0002145002145,0.0,5.36250536251e-05,0.0,0.0,0.0,0.0,5.36250536251e-05,0.0,0.0,0.0,0.0,0.0,0.0,0.0,0.0,0.0,0.0,0.0,0.0,0.0,0.0,0.0,0.0,0.0,0.0,0.0,0.0,0.0,0.0,0.0,0.0,0.0,0.0,0.0,5.36250536251e-05,0.0,0.0,0.001716001716,0.00359287859288,0.0,0.0,0.0,0.000858000858001,0.0,0.0,0.0,0.0,0.0,0.0,0.0,0.0,0.0,0.000697125697126,0.0,0.0,0.0,0.0,0.0,0.0,0.0,0.0119047619048,5.36250536251e-05,0.0,0.0,0.0,0.00294937794938,0.0,0.0,0.0,0.0,0.0,0.0,0.0,0.0,0.0,0.0,0.0,0.0,0.0,0.0,0.0,0.0,0.0,0.0,0.0,0.0,0.0,0.0,0.00010725010725,0.0,0.0,0.0,0.0,0.0,0.0,0.0,0.0,0.0,0.0,0.0,0.0,0.0,0.0,0.0,0.0,0.0,0.0,0.0,5.36250536251e-05,0.0,0.0,0.0,0.0,0.0,5.36250536251e-05,0.0,0.0,0.0,0.0,0.0,0.0,0.0,0.0,0.0,0.0,0.0,0.0,0.0,0.0,0.0,0.0,0.0,0.0,0.0,0.0,0.0,0.0,0.0,0.0,0.0,0.0,0.0,0.0,0.0,0.0,0.0,0.0,0.0,0.0,0.0,0.0,0.0,0.0,0.0,0.0,0.0305662805663,0.0,0.0,0.0,0.00010725010725,0.0,0.0,0.0,0.0,0.0,0.0,0.0,0.0,0.00010725010725,0.0,0.0,0.0,0.00032175032175,0.00198412698413,0.0,0.0,0.000482625482625,0.00155512655513,0.0,0.0,0.0,0.0,0.0,0.0,0.0,0.0,0.0,0.000482625482625,0.0,0.0,0.0,0.0,0.0,0.0,0.0,0.00112612612613,0.0,0.0,0.0,0.0,0.0,0.0,0.0,0.0,0.0,0.0,0.0,0.0,0.0,0.0,0.0,0.0,0.0,0.0,0.0,0.0,0.0010725010725,0.0,0.0,0.0,0.0,0.0,0.0,0.0,0.0,0.0,0.0,0.0,0.0,0.0,0.0,0.0,0.0,0.0,0.0,0.0,0.0,0.0,0.0,0.0,0.0,0.0,0.0,0.0,0.0,0.0,0.0,0.0,0.0,0.0,0.0122265122265,0.0,5.36250536251e-05,0.0023595023595,0.00557700557701,5.36250536251e-05,0.00010725010725,0.000160875160875,0.0248283998284,0.0,0.0,5.36250536251e-05,5.36250536251e-05,0.0,0.00032175032175,0.0002145002145,0.0,0.0,0.00010725010725,0.0,0.00847275847276,0.0,0.0,0.0,0.00139425139425,0.0,0.0222007722008,0.00546975546976,0.0,0.000482625482625,5.36250536251e-05,0.0833333333333,0.00010725010725,0.00010725010725,0.0,0.0134598884599,0.0,0.0,0.00482625482625,0.00010725010725,5.36250536251e-05,0.000911625911626,5.36250536251e-05,0.0,0.000697125697126,0.00466537966538,0.0,0.000750750750751,0.0,5.36250536251e-05,0.0,0.00166237666238,0.0,0.100761475761,0.000268125268125,0.0,0.0,0.0,0.0,0.0,0.0,0.0,0.0,0.0,0.0,0.0,0.0,0.000804375804376,0.0,0.0,0.0,0.0236486486486,0.000268125268125,0.0,0.0,0.0,0.0,0.0,0.0,0.0,0.0,0.0,0.0,0.0,0.0,0.0,0.0,0.0,0.0,0.0,0.0,0.0,0.0,0.0,0.0,0.0,0.0,0.0,0.0,0.0,0.0,0.0,0.0,0.0,0.0,0.0,0.0,0.0,5.36250536251e-05,0.0,0.0,0.0,0.0,0.0,0.0,0.0,0.0,0.0,0.0,0.0,0.0,0.0,0.0,0.0,0.0,0.0,0.0,0.0,0.0,0.0,0.0,0.0,0.0,0.0,0.0,0.0,0.0,0.0,0.0,0.0,0.0,0.0,0.0,0.0,0.0,0.0,0.0,0.0,0.0,0.0,0.0,0.0,0.0,0.0,0.0,0.0,0.0,0.0,0.0,0.0,0.0,0.0,0.0,5.36250536251e-05,0.0,0.0,0.0,0.0,0.0,5.36250536251e-05,0.0,0.0,0.0,0.0,5.36250536251e-05,0.0,0.0,0.0,0.0,0.0,0.0,0.0,0.0,0.0,0.0,0.0,5.36250536251e-05,0.0,0.00557700557701,0.0,0.0,0.0,0.0,0.0,0.0,0.0,0.0,0.0,0.0,0.0,0.0,0.0,0.0,0.0,0.0,0.0,0.0,0.0,0.0,0.0,0.0,0.0,0.0,0.0,0.0,0.0,0.0466001716002,0.0201093951094,0.0105105105105,0.0139425139425,0.00922350922351,0.0208065208065,0.0122801372801,0.0339446589447,0.0628485628486,0.00144787644788,0.00219862719863,0.0138888888889,0.0320141570142,0.0174281424281,0.012012012012,0.0114221364221,0.000750750750751,0.004719004719,0.0290111540112,0.076093951094,0.00198412698413,0.00252037752038,0.030888030888,0.0,0.0232732732733,5.36250536251e-05,0.0
at,0.0,0.0,0.0,0.0,0.0,0.0,0.00043594512904,0.0,8.7189025808e-05,0.0,0.0,0.00151127644734,2.90630086027e-05,0.00043594512904,0.0,2.90630086027e-05,0.0,0.000145315043013,0.000116252034411,0.0,0.0,0.0,0.0,0.0,2.90630086027e-05,0.0,2.90630086027e-05,0.0,0.0,0.0,0.0,5.81260172053e-05,0.0,0.0,0.0,0.0,0.0,0.0,0.0,0.0,0.0,0.0,0.0,0.0,2.90630086027e-05,0.0,0.0,0.0,0.0,0.0,0.0,0.0,0.0,0.0,5.81260172053e-05,0.0,0.0,0.0,0.0,0.0,0.0,0.0174378051616,0.0,0.0,0.0,0.000348756103232,0.0,0.0,0.0,0.0,0.0,0.0,0.0,0.0,0.0,0.0,0.0,0.0,0.0,0.0,0.0,0.0,0.0,0.0,0.0,0.0,0.0,0.0,0.0,0.0,0.0,0.0,0.0,0.0,0.0,0.0,0.0,0.0,0.0,0.0,0.0,0.0,0.0,0.0,0.0,0.0,0.0,0.0,0.0,5.81260172053e-05,0.000174378051616,0.00621948384097,0.000726575215066,0.00180190653336,0.0,0.000232504068821,0.0,0.0,0.0,0.00264473378284,0.000203441060219,0.00345849802372,0.0,0.0,0.0,0.00953266682167,0.0106951871658,0.000116252034411,2.90630086027e-05,0.000290630086027,2.90630086027e-05,0.0,0.0,0.0,0.0520809114159,0.0,0.0,0.0,0.0,0.0,0.0,0.0,0.0,5.81260172053e-05,0.0,0.0,0.0,0.0,0.0,0.000174378051616,0.0,0.0,0.0,0.0,0.0,0.0,0.0,0.0,0.0,0.0,0.0,0.0,2.90630086027e-05,0.0,0.0,0.0,0.0,0.0,0.0,0.0,0.0,0.0,0.0,0.0,0.0,0.0,0.0,0.0,0.0,0.000145315043013,0.0,0.0,2.90630086027e-05,0.0,0.0,0.0,0.0,0.0,0.0,0.00171471750756,0.000261567077424,2.90630086027e-05,0.0011043943269,0.0534759358289,0.000465008137642,0.0,0.0,0.00124970936991,0.0,2.90630086027e-05,0.000465008137642,2.90630086027e-05,8.7189025808e-05,0.000494071146245,2.90630086027e-05,0.0,0.0,0.00453382934201,2.90630086027e-05,0.0,8.7189025808e-05,0.000290630086027,0.0,0.000290630086027,0.0,0.0960241804232,0.000697512206464,2.90630086027e-05,0.000900953266682,0.0,0.0102592420367,0.000581260172053,2.90630086027e-05,0.0,2.90630086027e-05,0.0,0.0,0.000261567077424,2.90630086027e-05,0.00322599395489,0.0294989537317,0.0,0.0,0.000116252034411,0.00386538014415,0.000755638223669,0.0,0.00281911183446,0.0,0.0,0.0,0.0,2.90630086027e-05,0.0,0.0,0.0,0.0,0.0,0.0,0.0,0.0,0.0,0.0,0.0,0.0,0.0,0.0,0.0,0.0,0.0,0.0,0.0,0.0,0.0,0.0,0.0,0.0,0.0,0.0,0.0,0.0,0.0,0.0,0.0,0.0,0.0,0.0,0.0,2.90630086027e-05,0.0,0.0,0.0,0.0,0.0,0.0,0.0,0.0,0.0,0.0,0.0,0.0,0.0,0.0,0.0,0.0,0.0,0.0,5.81260172053e-05,0.0,0.0,0.0,2.90630086027e-05,0.0,0.0,0.0,8.7189025808e-05,0.0,0.0,0.0,0.0,0.0,2.90630086027e-05,0.0,0.0,0.0,0.0,0.0,0.0,0.0,0.0,0.0,0.00055219716345,0.0,0.0,2.90630086027e-05,0.0,0.0,0.0,2.90630086027e-05,0.0,0.0,0.0,0.0,0.0,0.0,0.0,0.0,0.0,0.0,0.0,0.0,0.0,0.0,0.0,0.0,0.0,0.0,0.0,0.0,0.0,0.0,0.0,0.0,0.0,0.0,0.00238316670542,0.0,0.0,0.0,0.000377819111834,0.0,0.0,0.0,0.0,0.0,0.0,0.0,0.0,0.0,0.0,0.0,0.0,0.0,0.0,0.0,0.0,0.0,0.0,0.0,0.0,0.0,0.0,2.90630086027e-05,0.0,0.0,0.0,0.0,0.0,0.0,2.90630086027e-05,0.000406882120437,0.000290630086027,0.0,2.90630086027e-05,0.0,0.00276098581725,0.000348756103232,0.0,0.0,0.0,0.0,0.0,0.0,0.0,0.00116252034411,0.0,0.0,0.0,0.0,0.0,0.0,0.0,0.0,0.0,0.0,0.0,0.0,0.0,0.0,0.0,0.0,0.0,0.0,0.0,0.0,0.0,0.0,0.0,0.0,0.0,0.0,0.0,0.0,0.0,0.0,0.0,0.0,0.0,0.0,0.0,0.0,0.0,0.0,0.0,0.0,0.0,0.0,0.0,0.0,0.0,0.0,0.0,0.0,0.0,0.0,0.0,0.0,0.0,0.0,0.00101720530109,0.0,0.0,0.0,0.000668449197861,0.0,0.0,0.0,0.00212159962799,0.0,0.0,0.0,0.0,0.0,0.00148221343874,0.0,0.0,0.0,0.0,0.0,5.81260172053e-05,0.0,0.0,0.0,0.000290630086027,0.0,0.0,0.0,8.7189025808e-05,0.0,0.0,0.0,0.0,0.0,0.0,5.81260172053e-05,0.0,0.0,2.90630086027e-05,0.0,0.0,0.000610323180656,0.0,0.0,0.0,0.0,0.000465008137642,0.0,0.0,0.000145315043013,0.0,0.0,0.0,0.0299639618693,0.00154033945594,0.0,0.0,0.0,0.0258660776564,0.0,0.0,2.90630086027e-05,0.000668449197861,0.0,0.0,0.00462101836782,0.0,0.0,0.000465008137642,0.0,0.0,0.000523134154848,0.0,0.0,0.0,0.0,0.0,0.0,2.90630086027e-05,0.0,0.0,8.7189025808e-05,0.0,0.0,0.0,0.000523134154848,0.0,0.0,0.0,0.0,0.0,0.0,0.000145315043013,0.0,5.81260172053e-05,0.0,0.0,0.0,0.0204022320391,0.000523134154848,0.000406882120437,2.90630086027e-05,0.0,0.0,0.0,0.0,0.0,0.0,0.0,0.0,0.0,0.0,0.0,0.0,0.0,0.0,0.0,0.0,0.0,0.0,0.0,0.0,0.0,0.0,0.0,0.0,0.0,0.0,0.0,0.0,0.0,0.0,0.0,0.0,0.0,2.90630086027e-05,0.0,0.0,0.0,0.0,0.0,0.0,0.0,2.90630086027e-05,0.0,0.0,0.0,0.0,0.0,0.0,0.0,0.0,0.0,0.0,0.0,0.0,0.0,0.0,0.0,0.0,0.0,0.0,0.0,0.0,0.0,0.0,0.0,0.0,0.0,0.0,0.0,0.0,0.0,0.0,0.0,0.0,0.0,0.0,0.0,0.0,0.0,0.0,0.0,0.0,0.0,0.0,0.0,0.0,0.0,0.0,0.0,0.0,0.0,2.90630086027e-05,0.0,0.0,0.0,0.0,0.0,0.0,0.0,0.0,0.0,0.0,0.0,0.0,2.90630086027e-05,0.0,0.0,0.0,0.0,0.0,0.0,0.0,0.0,0.000581260172053,0.0,0.0,0.0,0.0,0.0,0.0,0.0,0.0,0.0,0.0,0.0,0.0,0.0,0.0,0.0,0.0,0.0,0.0,0.0,0.0,0.0,0.0,0.0,0.0,0.0,0.0,0.0,0.0394675656824,0.0159265287143,0.0197628458498,0.0210416182283,0.0115089514066,0.0165077888863,0.00941641478726,0.0506277609858,0.0736456637991,0.00183096954197,0.00540571960009,0.0162462218089,0.0354568704952,0.0154905835852,0.0171471750756,0.0136305510346,0.000813764240874,0.00746919321088,0.0480411532202,0.0732969076959,0.00273192280865,0.00313880492909,0.0490292955127,0.0,0.0267089049058,5.81260172053e-05,0.0
au,0.0,0.0,0.0,0.0,0.0,0.0,0.0,0.0,0.0,0.0,0.0,0.0,0.0,0.0,0.0,0.0,0.0,0.0,0.0,0.0,0.0,0.0,0.0,0.0,0.0,0.0,0.0,0.0,0.0,0.0,0.000629524708845,0.000314762354422,0.0,0.0,0.0,0.0,0.0,0.0,0.0028328611898,0.0,0.0,0.0,0.0,0.0,0.000314762354422,0.0,0.0,0.000314762354422,0.0,0.0,0.0,0.0,0.0,0.000944287063267,0.0028328611898,0.0,0.0,0.000944287063267,0.00503619767076,0.0,0.0,0.0,0.00251809883538,0.0,0.0,0.0,0.0,0.0,0.000629524708845,0.0,0.0,0.0,0.0,0.0,0.0,0.0,0.0,0.0,0.0103871576959,0.0,0.0,0.00377714825307,0.0,0.0,0.0,0.00125904941769,0.000314762354422,0.0,0.0,0.0491029272899,0.0,0.0,0.00125904941769,0.0,0.0,0.0,0.0,0.0,0.00503619767076,0.0,0.0,0.0,0.0,0.0,0.0,0.00157381177211,0.0,0.00849858356941,0.0,0.0,0.0,0.0,0.0,0.0,0.0,0.0,0.0,0.0,0.0,0.0,0.0,0.0,0.0,0.0,0.0,0.0,0.0,0.0,0.0,0.0,0.0,0.0,0.0,0.0,0.0,0.0,0.0,0.0,0.0,0.0,0.0,0.0,0.0,0.0107019200504,0.0,0.0,0.0,0.0,0.0,0.00409191060749,0.0,0.0,0.000629524708845,0.0,0.0,0.0,0.0,0.0,0.0,0.0,0.0,0.00220333648096,0.0,0.0,0.0,0.0,0.000944287063267,0.0,0.0,0.317909977967,0.0,0.0,0.0,0.0,0.00314762354422,0.0,0.0,0.0,0.0,0.000944287063267,0.0,0.0,0.00503619767076,0.0,0.0,0.0,0.0,0.0,0.0,0.0,0.0,0.0,0.0,0.0,0.0,0.0,0.0,0.0,0.0,0.0,0.0,0.0,0.0,0.0,0.0,0.0,0.0,0.0,0.0,0.0,0.0,0.0,0.0,0.0,0.0,0.0,0.0,0.0,0.0,0.0,0.0,0.0,0.0,0.0,0.0,0.0,0.0,0.0,0.0,0.0,0.0,0.0,0.0,0.0,0.0,0.0,0.0,0.0,0.0,0.0,0.0,0.0,0.0,0.0,0.0,0.0,0.0,0.0,0.0,0.0,0.0,0.0,0.0,0.0,0.0,0.0,0.0,0.0,0.0,0.0,0.0,0.0,0.0,0.0,0.0,0.0,0.0,0.0,0.0,0.0,0.0,0.0,0.0,0.0,0.0,0.0,0.0,0.0,0.0,0.0,0.0,0.0,0.0,0.0,0.0,0.0,0.0,0.0,0.0,0.0,0.0,0.0,0.0,0.0,0.0,0.0,0.0,0.0,0.0,0.00346238589865,0.0028328611898,0.0,0.0,0.0,0.0,0.00629524708845,0.0,0.000629524708845,0.0,0.0,0.0,0.0,0.0,0.0,0.0,0.00157381177211,0.101668240478,0.0,0.0,0.0,0.0,0.0,0.0,0.00314762354422,0.0,0.0,0.0,0.0,0.00629524708845,0.0,0.0,0.0,0.0,0.0,0.0,0.0,0.0,0.0,0.00125904941769,0.0,0.0,0.0,0.0,0.0,0.0,0.0,0.0,0.0,0.0,0.0,0.0,0.0,0.0,0.0173119294932,0.00251809883538,0.0,0.0,0.0,0.0,0.0,0.0,0.0,0.0,0.0,0.0,0.0,0.0,0.0,0.0,0.0,0.0513062637709,0.0,0.0,0.0,0.0,0.0,0.0,0.0,0.0,0.0,0.0,0.0,0.0,0.0,0.0,0.0,0.0,0.0,0.0,0.0,0.0,0.0,0.0,0.0,0.0,0.0,0.0,0.0,0.0,0.0,0.0,0.0,0.0,0.0,0.0,0.0,0.0,0.0,0.0,0.0,0.0,0.0,0.022348127164,0.0,0.0,0.0,0.0,0.0,0.0,0.0,0.0,0.0,0.0,0.0,0.0,0.0,0.0,0.0,0.0,0.0,0.0,0.0,0.0,0.0,0.0,0.0,0.0,0.0,0.0,0.0,0.0,0.0,0.0,0.0,0.0,0.0,0.0,0.0,0.0,0.0,0.0,0.0,0.0,0.0,0.0,0.0,0.0,0.0,0.0,0.000314762354422,0.0,0.0,0.0,0.00377714825307,0.0,0.0,0.0,0.000944287063267,0.0,0.0,0.0,0.0,0.0,0.000629524708845,0.0,0.0,0.0,0.00125904941769,0.0,0.00220333648096,0.0,0.0,0.0,0.0,0.0,0.00220333648096,0.000314762354422,0.0,0.0,0.00251809883538,0.192005036198,0.0,0.0,0.0,0.00188857412653,0.0,0.0,0.0,0.0,0.0,0.0,0.00251809883538,0.0,0.0,0.000944287063267,0.00598048473403,0.0,0.0,0.0,0.0,0.0,0.0,0.00440667296191,0.0,0.000314762354422,0.0,0.0,0.0103871576959,0.0,0.0,0.0276990871892,0.0122757318225,0.0,0.0,0.0,0.0,0.0,0.000629524708845,0.0,0.0,0.000314762354422,0.0,0.0,0.00251809883538,0.0,0.0,0.0,0.0522505508341,0.0,0.000629524708845,0.0,0.0,0.0,0.0,0.0,0.0,0.0,0.0,0.0,0.0,0.0,0.0,0.0,0.0,0.0,0.0,0.0,0.0,0.0,0.0,0.0,0.0,0.0,0.0,0.0,0.0,0.0,0.000629524708845,0.0,0.0,0.0,0.000314762354422,0.0,0.0,0.0,0.0,0.0,0.0,0.0,0.0,0.0,0.0,0.0,0.0,0.000314762354422,0.0,0.0,0.0,0.0,0.0,0.0,0.0,0.0,0.0,0.0,0.0,0.0,0.0,0.0,0.0,0.0,0.0,0.0,0.0,0.0,0.0,0.0,0.0,0.0,0.0,0.0,0.0,0.0,0.0,0.0,0.0,0.0,0.0,0.0,0.0,0.0,0.0,0.0,0.0,0.0,0.0,0.0,0.0,0.0,0.0,0.0,0.0,0.0,0.0,0.0,0.0,0.0,0.0,0.0,0.0,0.0,0.0,0.0,0.0,0.0,0.0,0.0,0.00346238589865,0.0,0.0,0.0,0.0,0.0,0.0,0.0,0.0,0.0,0.0,0.0,0.0,0.0,0.0,0.0,0.0,0.0,0.0,0.0,0.0,0.0,0.0,0.0,0.0,0.0,0.0,0.0,0.0,0.0,0.0,0.0,0.0,0.0,0.0,0.0,0.0,0.0,0.0,0.0,0.0,0.0,0.0,0.0,0.0,0.0,0.0,0.0,0.0,0.0,0.0,0.0,0.0,0.0,0.0,0.0,0.000314762354422,0.0,0.000314762354422,0.0,0.0,0.0,0.0,0.0,0.0,0.0,0.0,0.000314762354422,0.0,0.0,0.0,0.0,0.0,0.0,0.0,0.0,0.0,0.000629524708845,0.0,0.0,0.0,0.0
av,0.0,0.0,9.4696969697e-05,0.0,0.0,0.0,0.00445075757576,0.0,0.00142045454545,0.0,0.0,0.000757575757576,0.0,0.0,0.0,0.0,0.0,0.00113636363636,0.0,0.000473484848485,0.00151515151515,0.0,0.0,0.0,0.0,0.0,0.0,0.0,0.0,0.0,0.0,0.0,0.0,0.0,0.0,0.0,0.0,0.0,0.0,0.0,0.0,0.0,0.0,0.0,0.0,0.0,0.0,0.0,0.0,0.0,0.0,0.0,0.0,0.0,0.0,0.0,0.0,0.0,0.0,0.0,0.0,0.0,0.0,0.0,0.0,0.0,0.0,0.0,0.0,0.0,0.0,0.0,0.0,0.0,0.0,0.0,0.0,0.0,0.0,0.0,0.0,0.0,0.0,0.0,0.0,0.0,0.0,0.0,0.0,0.0,0.0,0.0,0.0,0.0,0.0,0.0,0.0,0.0,0.0,0.0,0.0,9.4696969697e-05,0.0,0.0,0.0,0.0,0.0,0.00473484848485,9.4696969697e-05,0.0,0.0,0.0032196969697,0.0,0.0,0.0,0.0,0.0,0.0,9.4696969697e-05,0.0120265151515,0.000852272727273,0.090625,0.0,0.0,0.0,0.0092803030303,0.0267992424242,0.00132575757576,0.0,0.0,9.4696969697e-05,0.0,0.0,0.000378787878788,0.739109848485,0.0,0.0,0.0,0.0,0.0,0.0,0.0,0.0,0.0,0.0,0.0,0.0,0.0,0.0,0.0,0.0,0.0,0.0,0.0,0.0,0.0,0.0,0.0,0.0,0.0,0.0,0.0,0.0,0.0,0.0,0.0,0.0,0.0,0.0,0.0,0.0,0.0,0.0,0.0,0.0,0.0,0.0,0.0,0.0,0.0,0.0,0.0,0.0,0.0,0.0,0.0,0.0,0.0,0.0,0.0,0.0,0.0,0.0,0.0,0.0,0.0,0.0,0.0,0.0,0.0,0.0,0.0,0.0,0.0,0.0,0.0,0.0,0.0,0.0,0.0,0.0,0.0,0.0,0.0,0.0,0.0,0.00227272727273,0.0,0.0,0.0,0.00189393939394,0.0,9.4696969697e-05,0.0,0.0,0.0,0.0,0.00331439393939,0.0,0.0268939393939,0.00388257575758,0.0,0.0,0.0,0.00482954545455,0.00189393939394,0.00255681818182,0.0,0.0,0.0,0.0,0.0,0.0,0.0,0.0,0.0,0.0,0.0,0.0,0.0,0.0,0.0,0.0,0.0,0.0,0.0,0.0,0.0,0.0,0.0,0.0,0.0,0.0,0.0,0.0,0.0,0.0,0.0,0.0,0.0,0.0,0.0,0.0,0.0,0.0,0.0,0.0,0.0,0.0,0.0,0.0,0.0,0.0,0.0,0.0,0.0,0.0,0.0,0.0,0.0,0.0,0.0,0.0,0.0,0.0,0.0,0.0,0.0,0.0,0.0,0.0,0.0,0.0,0.0,0.0,0.0,0.0,0.0,0.0,0.0,0.0,0.0,0.0,0.0,0.0,0.0,0.0,0.0,0.0,0.0,0.0,0.0,0.0,0.0,0.0,0.0,0.0,0.0,0.0,0.0,0.0,0.0,0.0,0.0,0.0,0.0,0.0,0.0,0.0,0.0,0.0,0.0,0.0,0.0,0.0,0.0,0.0,0.0,0.0,0.0,0.0,0.0,0.0,0.0,0.0,0.0,0.0,0.0,0.0,0.0,0.0,0.0,0.0,0.0,0.0,9.4696969697e-05,0.0,0.0,0.0,0.0,0.0,0.0,0.0,0.0,0.0,0.0,0.0,0.0,0.0,0.0,0.000852272727273,0.0,0.0,0.0,0.0,0.0,0.00501893939394,0.0,0.0,0.000189393939394,0.0,0.0,0.0,0.0,0.0,0.000189393939394,0.0,0.0,0.0263257575758,0.0,0.000189393939394,0.0,9.4696969697e-05,0.0,0.0,0.0,0.0,0.0,0.0,0.0,0.0,0.0,0.0,0.0,0.0,0.0,0.0,0.0,0.0,0.0,0.0,0.0,0.0,0.0,0.0,0.0,0.0,0.0,0.0,0.0,0.0,0.0,0.0,0.0,0.0,0.0,0.0,0.0,0.0,0.0,0.0,0.0,0.0,0.0,0.0,0.0,0.0,0.0,0.0,0.0,0.0,0.0,0.0,0.0,0.0,0.0,0.0,0.0,0.0,0.0,0.0,0.0,0.0,0.0,0.0,0.0,0.0,9.4696969697e-05,0.0,0.0,0.0,0.0,0.0,0.0,0.0,0.0,0.0,0.0,0.0,0.0,0.0,0.0,0.0,0.0,0.0,0.0,0.0,0.0,0.0,0.0,0.0,0.0,0.0,0.0,0.0,0.0,0.0,0.0,0.0,0.0,0.0,0.0,0.0,0.0,0.0,0.00094696969697,0.0,0.0,0.0,0.0,0.0,0.0,0.0,0.0,0.0,0.0,0.0,0.0,0.0,0.0,0.0,0.0,0.0,0.0,0.0,0.0,0.0,0.0,0.0,0.0,0.0,0.0,0.0,0.0,0.0,0.0,0.0,0.0,0.0,0.0,0.0,0.0,0.0,0.0,0.0,0.0,0.0,0.0,0.0,0.0,0.0,0.0,0.0,0.0,0.0,0.0,0.0,0.0,0.0,0.0,0.0,0.0,0.0,0.0,0.0,0.0,0.0,0.0,0.0,0.0,0.0,0.0,0.0,0.0,0.0,0.0,0.0,0.0,0.0,0.0,0.0,0.0,0.0,0.0,0.0,0.0,0.0,0.0,0.0,0.0,0.0,0.0,0.0,0.0,0.0,0.0,0.0,0.0,0.0,0.0,0.0,0.0,0.0,0.0,0.0,0.0,0.0,0.0,0.0,0.0,0.0,0.0,0.0,0.0,0.0,0.0,0.0,0.0,0.0,0.0,0.0,0.0,0.0,0.0,0.0,0.0,0.0,0.0,0.0,0.0,0.0,0.0,0.0,0.0,0.0,0.0,0.0,0.0,0.0,0.0,0.0,0.0,0.0,0.0,0.0,0.0,0.0,0.0,0.0,0.0,0.0,0.0,0.0,0.0,9.4696969697e-05,9.4696969697e-05,0.0,0.0,0.0,0.0,0.0,0.0,0.0,0.0,0.0,0.0,0.000378787878788,9.4696969697e-05,0.0,0.0,0.0,0.0,0.0,0.0,0.0190340909091,0.0,0.0,0.0,0.0,0.0,0.0,0.0,0.0,0.0,0.0,0.0,0.0,0.0,0.0,0.0,0.0,0.0,0.0,0.0,0.0,0.0,0.0,0.0,0.0,0.0,0.0,0.0,0.0,0.0,0.0,0.0,9.4696969697e-05,0.0,0.0,0.0,0.0,0.0,0.0,0.0,0.0,0.0,0.0,0.0,0.0,0.0,0.0,0.0,0.0,0.0,0.0,0.0,0.0,0.0,0.0
aw,0.0,0.0,0.0,0.0,0.0,0.0,0.0,0.0,0.00118156754628,0.0,0.0421425758173,0.000393855848759,0.0,0.0,0.0,0.0,0.0,0.00512012603387,0.0,0.000787711697519,0.0,0.0,0.0,0.0,0.33320204805,0.0,0.0,0.0,0.0,0.0,0.0,0.00157542339504,0.0,0.0,0.0,0.0,0.0,0.0,0.000393855848759,0.0,0.0,0.000787711697519,0.0,0.0,0.000787711697519,0.0,0.0,0.0,0.0,0.0,0.0,0.0,0.0,0.0,0.0,0.0,0.0,0.0,0.0,0.0,0.0,0.0,0.0,0.0,0.0,0.0,0.0,0.0,0.0019692792438,0.0,0.0,0.0,0.0,0.0,0.0,0.0,0.0,0.0,0.0,0.0,0.0,0.0,0.000393855848759,0.0,0.0,0.000393855848759,0.0,0.0,0.0,0.0,0.0,0.0,0.0,0.0,0.0,0.00827097282395,0.0,0.0,0.00157542339504,0.00433241433635,0.0,0.0,0.0,0.0,0.0,0.00551398188263,0.0,0.0192989365892,0.00354470263883,0.0,0.0,0.000787711697519,0.000393855848759,0.0,0.0,0.0,0.0,0.0,0.0,0.000787711697519,0.0,0.0,0.0,0.0,0.0,0.00393855848759,0.00275699094132,0.000787711697519,0.0,0.0,0.0,0.0,0.0,0.0,0.00787711697519,0.0,0.0,0.0,0.0,0.0,0.0,0.0,0.0,0.0,0.0,0.0,0.0,0.0,0.0,0.0,0.0,0.0,0.0,0.0,0.0,0.0334777471445,0.0,0.0,0.0,0.0,0.0,0.0,0.0,0.0,0.0,0.0,0.0,0.0,0.0,0.0,0.0,0.0,0.0,0.0,0.0,0.0,0.0,0.0,0.0,0.0,0.0,0.0,0.0,0.0,0.0,0.0,0.0,0.0,0.0,0.0,0.0,0.0,0.0,0.0,0.0,0.0,0.0,0.0382040173297,0.0,0.0,0.0,0.0,0.0,0.0,0.0,0.0,0.0,0.0,0.0,0.0,0.0,0.0,0.0,0.0,0.0,0.0,0.0,0.0,0.0,0.0,0.0,0.0,0.0,0.0,0.0,0.0,0.0,0.0,0.0,0.00748326112643,0.0,0.0,0.0,0.0,0.0,0.0,0.0,0.0,0.0,0.0,0.0,0.0,0.0,0.0,0.0,0.0,0.0,0.0,0.0,0.0,0.0,0.0,0.0,0.0,0.0,0.0,0.0,0.0,0.0,0.0,0.0,0.0,0.0,0.0,0.0,0.0,0.0,0.0,0.0,0.0,0.0,0.0,0.0,0.000393855848759,0.0,0.0,0.0,0.0,0.00157542339504,0.0,0.0,0.0,0.0,0.0,0.0,0.0,0.0,0.0,0.00118156754628,0.0,0.0,0.0,0.00157542339504,0.0,0.0,0.0,0.00236313509256,0.0,0.0,0.0,0.000787711697519,0.00354470263883,0.0,0.0,0.0,0.00433241433635,0.0,0.0,0.0,0.0,0.0,0.0,0.0,0.0,0.0,0.00315084679007,0.0,0.0,0.0,0.0,0.0,0.000393855848759,0.0,0.00827097282395,0.0,0.0,0.0,0.0,0.0,0.0,0.0,0.0,0.0,0.0,0.0,0.0,0.0,0.0,0.0,0.0,0.0,0.0,0.0,0.0,0.0,0.0,0.0,0.0,0.0,0.0,0.0,0.0,0.000393855848759,0.0,0.00512012603387,0.00118156754628,0.0,0.0,0.0,0.00590783773139,0.0,0.0,0.0,0.0,0.0,0.0,0.0,0.0,0.0,0.00236313509256,0.0,0.0,0.0,0.0,0.0,0.00433241433635,0.0,0.0547459629776,0.0,0.0,0.0,0.0,0.0,0.0,0.0,0.0,0.0,0.0,0.0,0.0,0.0,0.0,0.0,0.0,0.0,0.00157542339504,0.0,0.0,0.0,0.0,0.0,0.0,0.0,0.0,0.0,0.0,0.0,0.0,0.0,0.0,0.0,0.0,0.0,0.000393855848759,0.0,0.0,0.0,0.0,0.0,0.0,0.0,0.0,0.0,0.0,0.0,0.0,0.0,0.0,0.0,0.0,0.0,0.0,0.0,0.0,0.0,0.0,0.0,0.0,0.0,0.0,0.0,0.0,0.0,0.0,0.0,0.0,0.0,0.0,0.0,0.0,0.0,0.0,0.0,0.0,0.0,0.0,0.0,0.0,0.0,0.0,0.0,0.0,0.0,0.000393855848759,0.0,0.0,0.0,0.0,0.0,0.0,0.0,0.0,0.0,0.0,0.0,0.0,0.0,0.0,0.0,0.0,0.0,0.0,0.0,0.00315084679007,0.0,0.0,0.0,0.0,0.0,0.0,0.00118156754628,0.0,0.0,0.0,0.0,0.0,0.0,0.0,0.0,0.0,0.0,0.0,0.0,0.0,0.0,0.00275699094132,0.0,0.0,0.0,0.0,0.0,0.0,0.042536431666,0.0,0.0,0.0,0.0,0.0,0.0,0.0,0.00275699094132,0.0,0.0,0.0,0.0,0.0,0.0,0.0,0.0,0.0,0.0,0.0,0.0,0.0,0.0,0.0,0.0,0.0,0.0,0.000393855848759,0.0,0.0,0.0,0.0,0.0,0.0,0.0,0.0,0.0,0.0,0.0,0.0,0.0,0.0,0.0,0.0,0.0,0.0,0.0,0.0,0.0,0.0,0.0,0.0,0.0,0.0,0.0,0.0,0.0,0.0,0.0,0.0,0.0,0.0,0.0,0.0,0.0,0.0,0.0,0.0,0.0,0.0,0.0,0.0,0.0,0.0,0.0,0.0,0.0,0.0,0.0,0.0,0.0,0.0,0.0,0.0,0.0,0.0,0.0,0.0,0.0,0.0,0.0,0.0,0.0,0.0,0.0,0.0,0.0,0.0,0.0,0.0,0.0,0.0,0.0,0.0,0.0,0.0,0.0,0.0,0.0,0.0,0.0,0.0,0.0,0.0,0.0,0.0,0.0,0.0,0.0,0.0,0.0,0.0,0.0,0.0,0.0,0.0,0.0,0.0,0.0,0.0,0.0,0.0,0.0,0.0,0.0,0.0,0.0,0.0,0.0,0.0,0.00433241433635,0.0,0.0,0.0,0.0,0.0,0.0,0.0,0.0,0.0,0.0,0.0,0.0,0.0,0.0,0.0,0.0,0.0,0.0,0.0,0.0,0.0,0.000393855848759,0.0,0.0,0.0,0.0,0.0,0.0,0.0,0.0,0.0,0.0,0.0,0.0,0.0,0.0,0.0,0.0,0.0,0.0,0.0,0.0,0.0,0.0,0.0,0.0,0.0,0.0,0.0,0.0389917290272,0.0106341079165,0.00590783773139,0.00433241433635,0.00354470263883,0.00590783773139,0.00315084679007,0.0366285939346,0.0267821977156,0.000393855848759,0.0,0.00315084679007,0.0169358014967,0.0133910988578,0.0157542339504,0.00275699094132,0.0,0.0019692792438,0.0110279637653,0.0681370618354,0.00433241433635,0.000393855848759,0.0133910988578,0.0,0.022843639228,0.0,0.0
ax,0.0,0.0,0.0,0.0,0.0,0.0,0.0,0.0,0.0,0.0,0.0,0.0,0.0,0.0,0.0,0.0,0.0,0.0,0.0,0.04,0.0,0.0,0.0,0.0,0.0,0.0,0.0,0.0,0.0,0.0,0.0,0.0,0.0,0.0,0.0,0.0,0.0,0.0,0.0,0.0,0.0,0.0,0.0,0.0,0.0,0.0,0.0,0.0,0.0,0.0,0.0,0.0,0.0,0.0,0.0,0.0,0.0,0.0,0.0,0.0,0.0,0.0,0.0,0.0,0.0,0.0,0.0,0.0,0.0,0.0,0.0,0.0,0.0,0.0,0.0,0.0,0.0,0.0,0.0,0.0,0.0,0.0,0.0,0.0,0.0,0.0,0.0,0.0,0.0,0.0,0.0,0.0,0.0,0.0,0.0,0.0,0.0,0.0,0.0,0.0,0.0,0.0,0.0,0.0,0.0,0.0,0.0,0.0228571428571,0.0,0.0,0.0,0.0228571428571,0.0,0.0,0.0,0.0,0.0,0.0,0.0,0.0,0.0,0.0514285714286,0.0,0.0,0.0,0.0,0.0285714285714,0.0,0.0,0.0,0.0,0.0,0.0,0.0,0.131428571429,0.0,0.0,0.0,0.0,0.0,0.0,0.0,0.0,0.0,0.0,0.0,0.0,0.0,0.0,0.0,0.0,0.0,0.0,0.0,0.0,0.0,0.0,0.0,0.0,0.0,0.0,0.0,0.0,0.0,0.0,0.0,0.0,0.0,0.0,0.0,0.0,0.0,0.0,0.0,0.0,0.0,0.0,0.0,0.0,0.0,0.0,0.0,0.0,0.0,0.0,0.0,0.0,0.0,0.0,0.0,0.0,0.0,0.0,0.0,0.0,0.0,0.0,0.0,0.0,0.0,0.0,0.0,0.0,0.0,0.0,0.0,0.0,0.0,0.0,0.0,0.0,0.0,0.0,0.0,0.0,0.0,0.0,0.0,0.0,0.0,0.0,0.0,0.0,0.0,0.0,0.0,0.0,0.0,0.00571428571429,0.0171428571429,0.0,0.0,0.0,0.0,0.0,0.0,0.0,0.0,0.0,0.0,0.0,0.0,0.0,0.0,0.0,0.0,0.0,0.0,0.0,0.0,0.0,0.0,0.0,0.0,0.0,0.0,0.0,0.0,0.0,0.0,0.0,0.0,0.0,0.0,0.0,0.0,0.0,0.0,0.0,0.0,0.0,0.0,0.0,0.0,0.0,0.0,0.0,0.0,0.0,0.0,0.0,0.0,0.0,0.0,0.0,0.0,0.0,0.0,0.0,0.0,0.0,0.0,0.0,0.0,0.0,0.0,0.0,0.0,0.0,0.0,0.0,0.0114285714286,0.0,0.0,0.0,0.0,0.0,0.0,0.0,0.0,0.0,0.0,0.0,0.0,0.0,0.0,0.0,0.0,0.0,0.0,0.0,0.0,0.0,0.0,0.0,0.0,0.0,0.0,0.0,0.0,0.0,0.0,0.0,0.0,0.0,0.0,0.0,0.0,0.0,0.0,0.0,0.0,0.0,0.0,0.0,0.0,0.0,0.0,0.0,0.0,0.0,0.0,0.0,0.0,0.0,0.0,0.0,0.0,0.0,0.0,0.0,0.0,0.0,0.0,0.0,0.0,0.0,0.0,0.0,0.0,0.0,0.0,0.0,0.0,0.0,0.0,0.0,0.0,0.0,0.0,0.0,0.0,0.0,0.0,0.0,0.0,0.0,0.0,0.0,0.0,0.0,0.0171428571429,0.0,0.0,0.0,0.0,0.0,0.0,0.0,0.0,0.0,0.0,0.0,0.0,0.0,0.0,0.0,0.0,0.0,0.0,0.0,0.0,0.0,0.0,0.0,0.0,0.0,0.0,0.0,0.0,0.0,0.0,0.0,0.0,0.0,0.0,0.0,0.0,0.0,0.0,0.0,0.0,0.0,0.0,0.0,0.0,0.0,0.0,0.0,0.0,0.0,0.0,0.0,0.0,0.0,0.0,0.0,0.0,0.0,0.0,0.0,0.0,0.0,0.0,0.0,0.0,0.0,0.0,0.0,0.0,0.0,0.0,0.0,0.0,0.0,0.0,0.0,0.0,0.0,0.0,0.0,0.0,0.0,0.0,0.0,0.0,0.0,0.0,0.0,0.0,0.0,0.0,0.0,0.0,0.0,0.0,0.0,0.0,0.0,0.0,0.0,0.0,0.0,0.0,0.0,0.0,0.0,0.0,0.0,0.0,0.0,0.0,0.0,0.0,0.0,0.0,0.0,0.0,0.0,0.0,0.0,0.0,0.0,0.0,0.0,0.0,0.0,0.0,0.0,0.0,0.0,0.0,0.0,0.0,0.0,0.0,0.0,0.0,0.0,0.0,0.0,0.0,0.0,0.0,0.0,0.0,0.0,0.0,0.0,0.0,0.0,0.0,0.0,0.0,0.0,0.0,0.0,0.0,0.0,0.0,0.0,0.0,0.0,0.0,0.0,0.0,0.0,0.0,0.0,0.0,0.0,0.0,0.0,0.0,0.0,0.0,0.0,0.0,0.0,0.0,0.0,0.0,0.0,0.0,0.0,0.0,0.0,0.0,0.0,0.0,0.0,0.0,0.0,0.0,0.0,0.0,0.0,0.0,0.0,0.0,0.0,0.0,0.0,0.0,0.0,0.0,0.0,0.0,0.00571428571429,0.0,0.0,0.0,0.0,0.0,0.0,0.0,0.0,0.0,0.0,0.0,0.0,0.0,0.0,0.0,0.0,0.0,0.0,0.0,0.0,0.0,0.0,0.0,0.0,0.0,0.0,0.0,0.0,0.0,0.0,0.0,0.0,0.0,0.0,0.0,0.0,0.0,0.0,0.0,0.0,0.0,0.0,0.0,0.0,0.0,0.0,0.0,0.0,0.0,0.0,0.0,0.0,0.0,0.0,0.0,0.0,0.0,0.0,0.0,0.0,0.0,0.0,0.0,0.0,0.0,0.0,0.0,0.0,0.0,0.0,0.0,0.0,0.0,0.0,0.0,0.0,0.0,0.0,0.0,0.0,0.0,0.0,0.0,0.0,0.0,0.0,0.0,0.0,0.0,0.0,0.0,0.0,0.0,0.0,0.0,0.0,0.0,0.0,0.0,0.0,0.0,0.0,0.0,0.0971428571429,0.0171428571429,0.0342857142857,0.0171428571429,0.00571428571429,0.0285714285714,0.0228571428571,0.0685714285714,0.0514285714286,0.0,0.0,0.00571428571429,0.04,0.0342857142857,0.04,0.0114285714286,0.0,0.0114285714286,0.0285714285714,0.0742857142857,0.00571428571429,0.00571428571429,0.0285714285714,0.0,0.0171428571429,0.0,0.0
ay,0.0,9.10580950647e-05,0.0,0.0,0.0,0.0,0.0,0.0,0.0,0.0,0.0,0.0,0.0,0.0,0.0,0.0,0.0,0.0,0.0,0.0,0.0,0.0,0.0,0.0,0.0,0.0,0.0,0.0,0.0,0.0,0.0,0.000182116190129,0.0,0.0,0.0,0.0,0.0,0.0,0.0,0.0,0.0,0.0,0.0,0.0,9.10580950647e-05,0.0,0.0,0.0,0.0,0.0,0.0,0.0,0.0,0.0,0.0,0.0,0.0,0.0,0.0,0.0,0.0,0.0,9.10580950647e-05,0.0,0.0,0.0,0.0,0.0,0.0,0.0,0.0,9.10580950647e-05,0.0,0.0,0.0,0.0,0.0,0.0,0.0,0.0,0.0,0.000182116190129,0.0,0.0,0.0,0.0,0.0,0.0,0.0,0.0,0.0,0.0,0.0,0.0,0.0,0.0,0.0,0.0,0.0,0.000182116190129,0.0,0.0,0.0,0.0,0.0,0.0,0.0,0.0142050628301,0.0,0.0,0.0,0.00346020761246,0.0,0.0,0.0,0.0,0.0,0.0,0.0,0.0,0.0,0.0,0.0,0.0,0.0,0.0157530504462,0.00245856856675,0.000182116190129,0.0,0.0,0.0,0.0,0.0,9.10580950647e-05,0.0015479876161,0.0,0.0,0.0,0.0,0.000819522855582,0.0,0.0,0.0,0.0,0.0,0.0,0.0,0.0,0.0,0.0,0.0,0.0,0.0,0.0,0.0,0.0,0.0,0.0,0.0,0.0,0.0,0.0,0.0,0.0,0.0,0.0,0.0,0.0,0.0,0.0,9.10580950647e-05,0.0,0.0,0.0,0.0,0.0,0.0,0.0,0.0,0.0,0.0,0.0,0.0,0.0,0.0,0.0,0.0,0.0,0.0,0.0,0.0,0.0,0.0,0.0,0.0,0.0,0.0,0.0,0.0,0.0,0.0,0.0,0.0,0.000182116190129,0.0,0.0,0.0,0.0,0.0,0.0,0.0,0.0,0.0,0.0,0.0,0.0,0.0,0.0,0.0,0.0,0.0,0.0,0.0,0.0,0.0,0.0,0.0,0.0,0.0,0.0116554361683,0.0,0.0,0.0,0.0,0.0,0.0,0.0,0.0,0.0,0.0,0.0,0.0,0.0,0.0,0.0,0.0,0.0,0.0,0.0,0.0,0.0,0.0,0.0,0.0,0.0,0.0,0.0,0.0,0.0,0.0,0.0,0.0,0.0,0.0,0.0,0.0,0.0,0.0,0.0,0.0,0.0,0.0,0.0,0.0,0.0,0.0,0.0,0.0,0.0,0.0,0.0,0.0,0.0,0.0,0.0,0.0,0.0,0.0,0.0,0.0,0.0,0.0,0.0,0.0,0.0,0.0,0.0,0.000182116190129,0.0,0.0,0.0,0.0,0.0,0.0,0.0,0.00109269714078,0.0,0.0,0.0,0.0,0.0,0.0,0.0,0.0,0.0,0.0,0.0,0.0,0.0,0.0,0.0,0.0,0.0,0.0,0.000182116190129,0.0,0.0,0.0,0.00182116190129,0.0,0.0,0.0,0.0,0.0,0.0,0.0,0.0,0.0,9.10580950647e-05,0.0,0.0,0.0,0.0,0.0,0.0,0.0,0.0,0.0,0.0,0.0,0.0,0.000182116190129,0.0,0.0,0.0,9.10580950647e-05,0.0,0.0,0.0,0.0,0.0,0.0,0.0,0.0,0.0,0.0,0.0,0.0,0.0,0.0,0.0,0.0,0.0,0.0,0.0,0.0,0.0,0.0,0.0,0.0,0.0,0.0,0.0,0.0,0.0,0.0,0.0,0.0,0.0,0.0,0.0,9.10580950647e-05,0.0,0.0,0.0,0.00209433618649,0.0,0.0,0.0,0.0,0.0,0.0,0.0,0.0,0.0,0.0,0.0,0.0,0.0,0.0,0.0,0.0,0.0,0.0,0.0,0.0,0.0,0.0,0.0,9.10580950647e-05,0.0,0.0,0.0,0.0,0.0,0.0,0.0,0.0,0.0,0.0,0.0,0.0,0.0,0.0,0.0,0.0,0.0,0.0,0.0,0.0,0.0,0.0,0.0,0.0,0.0,0.0,0.0,0.0,0.0,0.0,0.0,0.0,0.0,0.0,0.0,0.0,0.0,0.0,0.0,0.0,0.0,0.0,0.0,0.0,0.0,0.0,0.0,0.0,0.0,0.0,0.0,0.0,0.0,0.0,0.0,0.0,0.0,0.0,0.0,0.0,0.0,0.0,0.0,0.0,0.0,0.0,9.10580950647e-05,0.0,0.0,0.0,0.0,0.0,0.0,0.0,0.0,0.0,0.0,0.0,0.0,0.0,0.0,0.0,0.0,0.0,0.0,0.0122017847387,0.0,0.0,9.10580950647e-05,0.0,0.0,0.0,0.0728464760517,0.0,0.0,0.0,0.0,0.0,0.0,0.0,9.10580950647e-05,9.10580950647e-05,0.0,0.0,0.0,0.0,0.0,9.10580950647e-05,0.0,0.0,0.000182116190129,0.0,0.0,0.0,0.0,0.0,0.0,0.0,0.0,0.000819522855582,0.0,0.0,0.0,0.0,0.0,0.0,0.0,0.0,0.0,0.0,0.0,0.0,0.0,0.0,0.0,0.0,0.0,0.0,0.0,0.0,0.0,0.0,0.0,0.0,0.0,0.0,0.0,0.0,0.0,0.0,0.0,0.0,0.0,0.0,0.0,0.0,0.0,0.0,0.0,0.0,0.0,0.0,0.0,0.0,0.0,0.0,0.0,0.0,0.0,0.0,0.0,0.0,0.0,0.0,0.00136587142597,0.0,0.0,0.0,9.10580950647e-05,0.0,0.0,0.0,9.10580950647e-05,0.0,0.0,0.0,0.0,0.0,0.000364232380259,0.0,0.0,0.0,0.0,0.0,0.0,0.0,0.0,0.0,0.0,0.0,0.0,0.0,0.0,0.0,0.0,0.0,0.0,0.0,0.0,0.0,0.0,0.0,0.0,0.0,0.0,0.0,0.0,0.0,0.0,0.0,0.0,0.0,0.0,0.0,0.0,0.0,0.0,0.0,0.0,0.0,0.0,0.0,0.0,0.0,0.0,0.0,0.0,0.0,0.0,0.0,0.0,0.0,0.0,0.0,0.0,0.0,0.0,0.0,0.0,0.0,0.0,0.0,0.0,0.0,0.0,0.0,0.0,0.0,0.0,0.0,0.0,0.0,0.0,0.0,0.0,0.0,0.0,0.0,0.0,0.0,0.0,0.0,0.0,0.0,0.0,0.0,0.0,0.0,0.0,0.0,0.0,0.0,0.0805864141322,0.0641048989255,0.019668548534,0.0190311418685,0.00810417046075,0.0286832999454,0.0202148971044,0.0467128027682,0.0794937169914,0.00191221999636,0.00427973046804,0.0164815152067,0.0453469313422,0.0304134037516,0.0305955199417,0.0144782371153,0.000728464760517,0.0074667637953,0.0558186122746,0.144873429248,0.00801311236569,0.00136587142597,0.0585503551266,0.0,0.0673829903478,0.0,0.0
az,0.0,0.0,0.0,0.0,0.0,0.0,0.0,0.0,0.0,0.0,0.0,0.0,0.0,0.0,0.0,0.0,0.0,0.208754208754,0.0,0.0,0.0,0.0,0.0,0.0,0.0,0.0,0.0,0.0,0.0,0.0,0.0,0.0,0.0,0.0,0.0,0.0,0.0,0.0,0.0,0.0,0.0,0.0,0.0,0.0,0.0,0.0,0.0,0.0,0.0,0.0,0.0,0.0,0.0,0.0,0.0,0.0,0.0,0.0,0.0,0.0,0.0,0.0,0.0,0.0,0.0,0.0,0.0,0.0,0.0,0.0,0.0,0.0,0.0,0.0,0.0,0.0,0.0,0.0,0.0,0.0,0.0,0.0,0.0,0.0,0.0,0.0,0.0,0.0,0.0,0.0,0.0,0.0,0.0,0.0,0.0,0.0,0.0,0.0,0.0,0.0,0.0,0.0,0.0,0.0,0.0,0.0,0.0,0.154882154882,0.0,0.0,0.0,0.0673400673401,0.0,0.0,0.0,0.0,0.0,0.0,0.0,0.013468013468,0.040404040404,0.043771043771,0.0,0.0,0.0,0.010101010101,0.023569023569,0.00673400673401,0.0,0.0,0.0,0.0,0.0,0.0,0.208754208754,0.0,0.0,0.0,0.0,0.0,0.0,0.0,0.0,0.0,0.0,0.0,0.0,0.0,0.0,0.0,0.0,0.0,0.0,0.0,0.0,0.0,0.0,0.0,0.0,0.0,0.0,0.0,0.0,0.0,0.0,0.0,0.0,0.0,0.0,0.0,0.0,0.0,0.0,0.0,0.0,0.0,0.0,0.0,0.0,0.0,0.0,0.0,0.0,0.0,0.0,0.0,0.0,0.0,0.0,0.0,0.0,0.0,0.0,0.0,0.0,0.0,0.0,0.0,0.0,0.0,0.0,0.0,0.0,0.0,0.0,0.0,0.0,0.0,0.0,0.0,0.0,0.0,0.0,0.0,0.0,0.0,0.0,0.0,0.0,0.0,0.003367003367,0.0,0.0,0.0,0.0,0.0,0.0,0.0,0.0,0.0740740740741,0.0,0.0,0.0,0.0,0.0,0.0,0.0,0.0,0.0,0.0,0.0,0.0,0.0,0.0,0.0,0.0,0.0,0.0,0.0,0.0,0.0,0.0,0.0,0.0,0.0,0.0,0.0,0.0,0.0,0.0,0.0,0.0,0.0,0.0,0.0,0.0,0.0,0.0,0.0,0.0,0.0,0.0,0.0,0.0,0.0,0.0,0.0,0.0,0.0,0.0,0.0,0.0,0.0,0.0,0.0,0.0,0.0,0.0,0.0,0.0,0.0,0.0,0.0,0.0,0.0,0.0,0.0,0.0,0.0,0.0,0.0,0.0,0.0,0.0,0.0,0.0,0.0,0.0,0.0,0.0,0.0,0.0,0.0,0.0,0.0,0.0,0.0,0.0,0.0,0.0,0.0,0.0,0.0,0.0,0.0,0.0,0.0,0.0,0.0,0.0,0.0,0.0,0.0,0.0,0.0,0.0,0.0,0.0,0.0,0.0,0.0,0.0,0.0,0.0,0.0,0.0,0.0,0.0,0.0,0.0,0.0,0.0,0.0,0.0,0.0,0.0,0.0,0.0,0.0,0.0,0.0,0.0,0.0,0.0,0.0,0.0,0.0,0.0,0.0,0.0,0.0,0.0,0.0,0.0,0.0,0.0,0.0,0.0,0.0,0.0,0.0,0.0,0.0,0.0,0.0,0.0,0.0,0.0,0.0,0.0,0.0,0.047138047138,0.0,0.0,0.0,0.010101010101,0.0,0.0,0.0,0.0,0.0,0.0,0.0,0.0,0.0,0.0,0.0,0.0,0.0,0.0,0.0,0.0,0.0,0.0,0.0,0.0,0.0,0.0,0.0,0.0,0.0,0.0,0.0,0.0,0.0,0.0,0.0,0.0,0.0,0.0,0.0,0.0,0.0,0.0,0.0,0.0,0.0,0.0,0.0,0.0,0.0,0.0,0.0,0.0,0.0,0.0,0.0,0.0,0.0,0.0,0.0,0.0,0.0,0.0,0.0,0.0,0.0,0.0,0.0,0.0,0.0,0.0,0.0,0.0,0.0,0.0,0.0,0.0,0.0,0.0,0.0,0.0,0.0,0.0,0.0,0.0,0.0,0.0,0.0,0.0,0.0,0.0,0.0,0.0,0.0,0.0,0.0,0.0,0.0,0.0,0.0,0.0,0.0,0.0,0.0,0.0,0.0,0.0,0.0,0.0,0.0,0.0,0.0,0.0,0.0,0.0,0.0,0.0,0.0,0.0,0.0,0.0,0.0,0.0,0.0,0.0,0.0,0.0,0.0,0.0,0.0,0.0,0.0,0.0,0.0,0.0,0.0,0.0,0.0,0.0,0.0,0.0,0.0,0.0,0.0,0.0,0.0,0.0,0.0,0.0,0.0,0.0,0.0,0.0,0.0,0.0,0.0,0.0,0.0,0.0,0.0,0.0,0.0,0.0,0.0,0.0,0.0,0.013468013468,0.0,0.0,0.0,0.0,0.0,0.0,0.0,0.0,0.0,0.0,0.0,0.0,0.0,0.0,0.0,0.0,0.0,0.0,0.0,0.0,0.0,0.0,0.0,0.0,0.0,0.0,0.0,0.0,0.0,0.0,0.0,0.0,0.0,0.0,0.0,0.0,0.0,0.0,0.0,0.0,0.0,0.0,0.0,0.0,0.0,0.0,0.0,0.0,0.0,0.0,0.0,0.0,0.0,0.0,0.0,0.0,0.0,0.0,0.0,0.0,0.0,0.0,0.0,0.0,0.0,0.0,0.0,0.0,0.0,0.0,0.0,0.0,0.0,0.0,0.0,0.0,0.0,0.0,0.0,0.0,0.0,0.0,0.0,0.0,0.0,0.0,0.0,0.0,0.0,0.0,0.0,0.0,0.0,0.0,0.0,0.0,0.0,0.0,0.0,0.0,0.0,0.0,0.0,0.0,0.0,0.003367003367,0.0,0.0,0.0,0.0,0.0,0.0,0.0,0.0,0.0,0.0,0.040404040404,0.00673400673401,0.0,0.0,0.0,0.0,0.0,0.0,0.0,0.0,0.0,0.0,0.023569023569,0.0,0.0,0.0,0.0,0.0,0.0,0.0,0.0,0.0,0.0,0.0,0.0,0.0,0.0,0.0,0.0,0.0,0.0,0.0,0.0,0.0,0.0,0.0,0.0,0.0,0.0,0.0,0.0,0.0,0.0,0.0,0.0,0.0,0.0,0.0,0.0,0.0,0.0,0.0,0.0,0.0,0.0
a ,0.0,6.28140703518e-05,0.0,0.000188442211055,0.0,0.000188442211055,0.000376884422111,0.000125628140704,6.28140703518e-05,0.0,0.0,0.000565326633166,0.000125628140704,0.00986180904523,0.0,6.28140703518e-05,0.0,0.000942211055276,0.000942211055276,0.000753768844221,0.0,0.0,0.000188442211055,0.0,0.000439698492462,0.0,0.00150753768844,0.0140703517588,0.0,0.0,0.0,0.0152638190955,0.0,0.0,0.0,0.00213567839196,0.0,0.0,0.00659547738693,0.0,0.0,0.00929648241206,0.0,0.0,0.0118090452261,0.0,0.0,0.00697236180905,0.0,0.0,0.0,0.000879396984925,0.0,0.000125628140704,0.0130025125628,0.0,0.0,0.0,0.00201005025126,0.0,0.0,0.0128140703518,0.00157035175879,0.0,0.0,0.00263819095477,0.0,0.0,0.022864321608,0.0,0.0,0.00684673366834,0.0,0.0,0.00559045226131,0.0,0.0,0.0,0.000125628140704,0.0,0.000188442211055,0.00879396984925,0.0,0.0,0.0,0.0128768844221,0.0,0.0,0.0,0.0071608040201,0.0,0.0,0.0,0.0,0.0,0.0104899497487,0.0,0.0,0.00653266331658,0.0,0.0,0.00320351758794,0.0,0.000188442211055,0.0,0.000314070351759,0.0,0.0,6.28140703518e-05,0.0,0.0,0.0,0.0,0.0,0.0,0.0,0.0,0.0,0.0,6.28140703518e-05,6.28140703518e-05,0.000188442211055,0.0,0.0,0.0,0.000125628140704,6.28140703518e-05,0.0,0.000376884422111,0.000439698492462,0.0,0.000125628140704,0.0,0.0,6.28140703518e-05,0.015891959799,0.0,0.0,0.0,0.00791457286432,0.0,0.0,0.0,0.00760050251256,0.0,0.0,0.00402010050251,0.0,0.0,0.0199120603015,0.0,0.0,0.00879396984925,0.0,0.0,0.00263819095477,0.0,0.0,0.0,0.0,0.0,0.0,0.00414572864322,0.0,0.0,0.0,0.0104271356784,0.0,0.0,0.000314070351759,0.00295226130653,0.0,0.0,0.00213567839196,0.0,0.000188442211055,0.0224874371859,0.0,0.0,0.0148869346734,0.0,0.0,0.00213567839196,0.0,0.0,0.0,0.0,0.0,0.0,0.0157035175879,0.0,0.0,0.0,0.0130653266332,0.0,0.0,0.0,0.00232412060302,0.0,0.0,0.0,0.0,0.0,0.011243718593,0.0,0.0,0.0,0.0,0.0,0.00822864321608,0.0,0.0,0.0,0.000314070351759,0.0,0.0,0.0,0.0,0.0,0.0,0.0,0.000816582914573,0.0,0.0,0.0,0.0,0.0,0.000690954773869,0.0,0.0016959798995,0.0,0.0,0.0,0.0,0.00244974874372,0.000502512562814,0.0,0.0,0.0,0.0,0.0,0.0,0.00502512562814,0.00131909547739,0.0,0.0,0.0,0.00288944723618,0.0,0.0,0.0,0.000188442211055,0.0,0.0,0.0,0.0,0.0,0.00288944723618,0.0,0.0,0.0,0.0,0.0,0.00150753768844,0.0,0.0,0.0,0.0,0.0,0.0,6.28140703518e-05,0.0,0.0,0.0,0.00100502512563,0.0,0.0,0.0,0.0167713567839,0.0,0.0,0.0,0.0,0.00559045226131,0.0,0.0,0.0,0.0,0.0,0.0,0.0,0.0,0.0,0.0,0.0,0.0,0.0,0.00935929648241,0.0,0.0,0.0,0.00778894472362,0.0,0.0,0.0,0.0207286432161,0.0,0.0,0.0,0.0,0.0,0.011432160804,0.0,0.0,0.0,0.0,0.0,0.00150753768844,0.0,0.0,0.0,6.28140703518e-05,0.0,6.28140703518e-05,0.0489949748744,0.0,0.0,0.0,0.00929648241206,0.0,0.0,0.0,0.0103015075377,0.0,0.0,0.0,0.0,0.0,0.0243090452261,0.0,0.0,0.0,0.0,0.0,0.00370603015075,0.0,0.0,0.0,0.00207286432161,0.0,0.0,0.00427135678392,0.0,0.0,0.0,0.00445979899497,0.0,0.0,0.0,0.00263819095477,0.0,0.0,0.0,0.0,0.0,0.0109296482412,0.0,0.0,0.0,0.0,0.0,0.00188442211055,0.0,0.0,0.0,0.000125628140704,0.0,0.0,0.0,0.0,0.0,0.0,6.28140703518e-05,0.00138190954774,0.0,0.0,0.0,0.0,0.0,0.000251256281407,0.000251256281407,0.00244974874372,0.0,0.0,0.0,0.00119346733668,0.0,6.28140703518e-05,0.000188442211055,0.000125628140704,0.0,0.0,0.0,0.0,0.00119346733668,0.0132537688442,0.0,0.0,0.0,0.00810301507538,0.0,0.0,0.00106783919598,0.00615577889447,0.0,0.0,0.00992462311558,0.0,0.0,0.0121859296482,0.0,0.0,0.0193467336683,0.0,0.0,0.00452261306533,0.0,0.0,0.0,6.28140703518e-05,0.0,0.0,0.0,0.0,0.0,0.0,0.0,0.0,0.0,0.0,0.0,0.0,0.0,0.0,0.0,0.0,0.0,0.0,0.0,0.0,0.0,0.0,0.00646984924623,0.0,0.0,0.0,0.0,0.0,0.0,0.00489949748744,0.0,0.0,0.0,0.00697236180905,0.0,0.0,0.000188442211055,0.00452261306533,0.0,0.0,0.0,0.0,0.0,0.0072864321608,0.0,0.0,0.0,0.0,0.0,0.00219849246231,0.0,0.0,0.0,0.0,0.0,6.28140703518e-05,0.00609296482412,0.0,0.00596733668342,0.0,0.0105527638191,0.0,0.0,0.0131281407035,0.00973618090452,0.0,0.000439698492462,0.0036432160804,0.00175879396985,0.000942211055276,0.0150753768844,0.00690954773869,0.000502512562814,0.0,0.0,0.016959798995,0.0072864321608,0.0,0.00489949748744,0.0,0.000376884422111,0.0,0.0,0.00559045226131,0.0,0.0,0.0,0.00489949748744,0.0,0.0,0.0314070351759,0.00565326633166,0.0,0.0,0.0,0.0,0.0,0.00841708542714,0.0,0.0,0.0142587939698,0.0,0.0,0.00157035175879,0.0,0.00163316582915,0.0,0.000879396984925,0.0,0.000314070351759,0.0,0.0,0.0,0.0,0.0,0.0,0.0,0.0,0.0,0.0,0.0,0.0,0.0,0.000565326633166,0.0,0.000125628140704,0.0,0.0,0.000565326633166,0.000125628140704,0.0,0.0,0.0,0.0,0.0,0.0,0.0,0.00157035175879,0.0,0.0,0.0,0.00948492462312,0.0,0.0,0.0,0.0089824120603,0.0,0.0,0.0,0.0,0.0,0.00251256281407,0.0,0.0,0.0,0.0,0.0,0.000251256281407,0.0,0.0,0.0,0.0,0.0,0.0,0.00854271356784,0.0,0.0,0.0,0.00778894472362,0.0,0.0,0.0155778894472,0.0154522613065,0.0,0.0,0.0,0.0,0.0,0.0282035175879,0.0,0.0,0.00207286432161,0.0,0.0,0.0,0.0,0.0,0.0,0.0,0.0,0.0,0.0,0.0,0.0,0.0,0.0,0.0,0.0,0.0,0.0,0.0,0.0,0.0,0.0,0.0,0.0,0.0,0.0,0.0,0.0,0.0,0.0,0.0,0.0,0.0,0.0,0.0,0.0,0.0,0.0,0.0,0.0,0.00207286432161,0.0,0.0,0.0,0.000251256281407,0.0,0.0,0.0,0.0,0.0,0.00552763819095,0.0,0.0,0.0,0.0,0.0,0.0,0.0,0.0,0.0,0.0,0.0,0.0,0.0,0.0,0.0,0.0,6.28140703518e-05,0.0,0.0,0.0,0.0,0.0,0.0,0.0,0.0,0.0,0.0,0.0,0.0,0.0,0.0,0.0,0.0,0.0,0.0,0.0,0.0,0.0,0.0,0.0,0.0,0.0,0.0,0.0,0.0,0.0,0.0,0.0,0.0,0.0,0.0,0.0,0.0,0.0,0.0,0.0,0.0,0.0,0.0,0.0,0.0,0.0,0.0,0.0,0.0,0.0
ba,0.0,0.0,0.0,0.0,0.0,0.0,0.0,0.0,0.0,0.0,0.0,0.0,0.0,0.0,0.0,0.0,0.0,0.0,0.0,0.0,0.0,0.0,0.0,0.0,0.0,0.0,0.000289603243556,0.0,0.00289603243556,0.0,0.0,0.018245004344,0.0,0.0,0.0,0.000868809730669,0.0,0.0,0.00347523892268,0.0,0.0,0.00173761946134,0.0,0.0,0.0,0.0,0.0,0.0,0.0,0.0,0.0,0.00550246162757,0.0,0.0,0.0,0.0,0.00115841297423,0.0,0.0,0.0,0.0,0.00637127135824,0.0,0.0,0.114972487692,0.0,0.0,0.0,0.00115841297423,0.0,0.0,0.0,0.0,0.0,0.0,0.0,0.0,0.0,0.0,0.0,0.0,0.0,0.0,0.0,0.0,0.0153489719085,0.0,0.00521285838401,0.0,0.0,0.0,0.0,0.000289603243556,0.0,0.000868809730669,0.0,0.0,0.0,0.0,0.000579206487113,0.0,0.0,0.0,0.0,0.0,0.0,0.0,0.0356211989574,0.0,0.0,0.0,0.0,0.0,0.0,0.0,0.0,0.0,0.0,0.0,0.0,0.0,0.0,0.0,0.0,0.0,0.0,0.000579206487113,0.0,0.0,0.0,0.0,0.0,0.0,0.0,0.0,0.0,0.0,0.0,0.0,0.0,0.00144801621778,0.0,0.0,0.0,0.0,0.0,0.0,0.0,0.0,0.0,0.0,0.0,0.0,0.0,0.0,0.0,0.0,0.0,0.0,0.0,0.0,0.0,0.0,0.0,0.0,0.0,0.000868809730669,0.0,0.00260642919201,0.0,0.0,0.0,0.0,0.0,0.0,0.0,0.00173761946134,0.00144801621778,0.0,0.0,0.00347523892268,0.0,0.0,0.0,0.0,0.0,0.0,0.0,0.00376484216623,0.0,0.0,0.0,0.0,0.0,0.0,0.0,0.0,0.0,0.0,0.0,0.0,0.0,0.0,0.0,0.0,0.0,0.0,0.0,0.0,0.0,0.0,0.0,0.0,0.0,0.0,0.0,0.0,0.0,0.0,0.0,0.0,0.0,0.0,0.0,0.0,0.0,0.0,0.00492325514046,0.0,0.00144801621778,0.0,0.0,0.0,0.0,0.00115841297423,0.00897770055025,0.0,0.0,0.0,0.0,0.0,0.0,0.0,0.000289603243556,0.0,0.0,0.0,0.0,0.0,0.0,0.0,0.0,0.0,0.0,0.0,0.0,0.0,0.0,0.0,0.0,0.0,0.0,0.0,0.0,0.0,0.0,0.0,0.0,0.0,0.0,0.0,0.0,0.0,0.00173761946134,0.00231682594845,0.0,0.0,0.0,0.000289603243556,0.0,0.0,0.0,0.0,0.0,0.0,0.0,0.0,0.0,0.0,0.0,0.0,0.0,0.0,0.0,0.0,0.0,0.0,0.00347523892268,0.0,0.0,0.00637127135824,0.00231682594845,0.0,0.0,0.0,0.0,0.0,0.000868809730669,0.0170865913698,0.00637127135824,0.0,0.0,0.0,0.0,0.0,0.00202722270489,0.0191138140747,0.0,0.0,0.0,0.0,0.0,0.0,0.00492325514046,0.0,0.0,0.0,0.0,0.0,0.0,0.0,0.0,0.0,0.0,0.0,0.0,0.0,0.0,0.0,0.0,0.0,0.0,0.0,0.0,0.0,0.0,0.0,0.0,0.0,0.0,0.0,0.0,0.000289603243556,0.000289603243556,0.128004633652,0.00260642919201,0.0,0.000868809730669,0.0,0.0584998551984,0.0,0.0133217492036,0.0,0.0,0.00521285838401,0.0,0.0,0.015638575152,0.0,0.00579206487113,0.00347523892268,0.0,0.0,0.0,0.0,0.00231682594845,0.0,0.00637127135824,0.0,0.0,0.0,0.0,0.0,0.0,0.0,0.0,0.0,0.0,0.0,0.0,0.0,0.0,0.0,0.0,0.0,0.0,0.0,0.0,0.0,0.0,0.0,0.0,0.0,0.0,0.0,0.0,0.0,0.0,0.0,0.0,0.0,0.0,0.0,0.0,0.0,0.0,0.0,0.0,0.0,0.0,0.0,0.0,0.0,0.0,0.0101361135245,0.0,0.0,0.0,0.0,0.0,0.0,0.0,0.0,0.0,0.0,0.0,0.0,0.0,0.0,0.0,0.0,0.0,0.0,0.0,0.0,0.0,0.0,0.0,0.0,0.0,0.0,0.0,0.0,0.0,0.0,0.0,0.0,0.0,0.0,0.000868809730669,0.0202722270489,0.0,0.0205618302925,0.0214306400232,0.000289603243556,0.00955690703736,0.0,0.00231682594845,0.0,0.0199826238054,0.000579206487113,0.000289603243556,0.00810889081958,0.00839849406313,0.0,0.000289603243556,0.0162177816392,0.00376484216623,0.00115841297423,0.0,0.0,0.0,0.0,0.00260642919201,0.0,0.0101361135245,0.000289603243556,0.0,0.000289603243556,0.000289603243556,0.0616854908775,0.0,0.0,0.00260642919201,0.00579206487113,0.0,0.00839849406313,0.0,0.0,0.0,0.000868809730669,0.0,0.0,0.0,0.0335939762525,0.0350419924703,0.0,0.0,0.0,0.0,0.0,0.0,0.000579206487113,0.00173761946134,0.0,0.000289603243556,0.0,0.0214306400232,0.000289603243556,0.0,0.00579206487113,0.0107153200116,0.0,0.0,0.000289603243556,0.0,0.0,0.000289603243556,0.0,0.0,0.0,0.00115841297423,0.0469157254561,0.0,0.0,0.0,0.0,0.0,0.0,0.00897770055025,0.0,0.00260642919201,0.0,0.000289603243556,0.0,0.0,0.0,0.0,0.0,0.0,0.0,0.0,0.0,0.0,0.0,0.0,0.0,0.0,0.0,0.0,0.0,0.0,0.0,0.0,0.0,0.0,0.0,0.0,0.0,0.0,0.0,0.0,0.0,0.0,0.0,0.000289603243556,0.0,0.0,0.0,0.0,0.0,0.0,0.0,0.0,0.0,0.0,0.0,0.0,0.0,0.0,0.0,0.0,0.0,0.0,0.0,0.000289603243556,0.00115841297423,0.018245004344,0.0,0.0,0.0,0.0,0.0,0.0,0.0,0.000579206487113,0.0,0.0,0.0,0.0,0.0,0.0,0.0,0.0,0.0,0.0,0.0,0.0,0.0,0.0,0.0,0.0,0.0,0.0,0.0,0.0,0.0,0.0,0.0,0.0,0.0,0.0,0.0,0.0,0.0,0.0,0.0,0.0,0.0,0.0,0.0,0.0,0.0,0.0,0.0,0.0,0.0,0.0,0.0,0.0,0.0,0.00115841297423,0.0,0.0,0.0,0.0,0.000289603243556,0.0,0.0,0.0,0.0,0.000579206487113,0.000289603243556,0.0,0.0,0.0,0.000289603243556,0.000289603243556,0.0,0.0,0.000289603243556,0.0,0.0,0.0,0.00695047784535,0.0,0.0,0.0,0.0,0.0,0.0,0.0,0.0,0.0,0.0,0.0,0.0,0.0,0.0,0.0,0.0,0.0,0.0,0.0,0.0,0.0,0.0,0.0,0.0,0.0,0.0,0.0,0.000579206487113,0.000289603243556,0.000289603243556,0.000289603243556,0.0,0.0,0.000289603243556,0.0,0.0,0.0,0.0,0.000579206487113,0.000289603243556,0.0,0.000579206487113,0.000289603243556,0.0,0.0,0.000289603243556,0.000579206487113,0.0,0.0,0.000868809730669,0.0,0.0,0.0,0.0
bb,0.0,0.0,0.0,0.0,0.0,0.0,0.00311526479751,0.0,0.0,0.0,0.0,0.0,0.0,0.0,0.0,0.0,0.0,0.0155763239875,0.00311526479751,0.00623052959502,0.0,0.0,0.0,0.0,0.0,0.0,0.0,0.0,0.0,0.0,0.0,0.0,0.0,0.0,0.0,0.0,0.0,0.0,0.0,0.0,0.0,0.0,0.0,0.0,0.0,0.0,0.0,0.0,0.0,0.0,0.0,0.0,0.0,0.0,0.0,0.0,0.0,0.0,0.0,0.0,0.0,0.0,0.0,0.0,0.0,0.0,0.0,0.0,0.0,0.0,0.0,0.0,0.0,0.0,0.0,0.0,0.0,0.0,0.0,0.0,0.0,0.0,0.0,0.0,0.0,0.0,0.0,0.0,0.0,0.0,0.0,0.0,0.0,0.0,0.0,0.0,0.0,0.0,0.0,0.0,0.0,0.0,0.0,0.0,0.0,0.0,0.0,0.155763239875,0.0,0.0,0.0,0.0716510903427,0.0,0.0,0.0,0.0,0.0,0.0,0.0,0.0,0.0,0.0,0.0,0.0,0.0,0.102803738318,0.0155763239875,0.0342679127726,0.0,0.0,0.0,0.0,0.0467289719626,0.0,0.0,0.0,0.0,0.0,0.0,0.0,0.0,0.0,0.0,0.0,0.0,0.0,0.0,0.0,0.0,0.0,0.0,0.0,0.0,0.0,0.0,0.0,0.0,0.0,0.0,0.0,0.0,0.0,0.0,0.0,0.0,0.0,0.0,0.0,0.0,0.0,0.0,0.0,0.0,0.0,0.0,0.0,0.0,0.0,0.0,0.0,0.0,0.0,0.0,0.0,0.0,0.0,0.0,0.0,0.0,0.0,0.0,0.0,0.0,0.0,0.0,0.0,0.0,0.0,0.0,0.0,0.0,0.0,0.0,0.0,0.0,0.0,0.0,0.0,0.0,0.0,0.0,0.0,0.0,0.0,0.0,0.0,0.0,0.0,0.0,0.00311526479751,0.00311526479751,0.0,0.0,0.0,0.0,0.0,0.0,0.0,0.0,0.0560747663551,0.0,0.0,0.0,0.0,0.00623052959502,0.01246105919,0.0,0.0,0.0,0.0,0.0,0.0,0.0,0.0,0.0,0.0,0.0,0.0,0.0,0.0,0.0,0.0,0.0,0.0,0.0,0.0,0.0,0.0,0.0,0.0,0.0,0.0,0.0,0.0,0.0,0.0,0.0,0.0,0.0,0.0,0.0,0.0,0.0,0.0,0.0,0.0,0.0,0.0,0.0,0.0,0.0,0.0,0.0,0.0,0.0,0.0,0.0,0.0,0.0,0.0,0.0,0.0,0.0,0.0,0.0,0.0,0.0,0.0,0.0,0.0,0.0,0.193146417445,0.0,0.0,0.0,0.0311526479751,0.0,0.0,0.0,0.0,0.0,0.0,0.0,0.0,0.0,0.0,0.0,0.0,0.0,0.0,0.0,0.0,0.0,0.0,0.0,0.0,0.0,0.0,0.0,0.0,0.0,0.0,0.0,0.0,0.0,0.0,0.0,0.0,0.0,0.0,0.0,0.0,0.0,0.0,0.0,0.0,0.0,0.0,0.0,0.0,0.0,0.0,0.0,0.0,0.0,0.0,0.0,0.0,0.0,0.0,0.0,0.0,0.0,0.0,0.0,0.0,0.0,0.0,0.0,0.0,0.0,0.0,0.0,0.0,0.0,0.0,0.0,0.0,0.0,0.0,0.00311526479751,0.0,0.0,0.0,0.0,0.0,0.0,0.0,0.0,0.0,0.0,0.00311526479751,0.0,0.0,0.0,0.0965732087227,0.0,0.0155763239875,0.0,0.0,0.0,0.0,0.0,0.0,0.018691588785,0.0,0.0,0.0,0.0,0.0,0.0,0.0,0.0,0.0,0.0,0.0,0.0,0.0,0.0,0.0,0.0,0.0,0.0,0.0,0.0,0.0,0.0,0.0,0.0,0.0,0.0,0.0,0.0,0.0,0.0,0.0,0.0,0.0,0.0,0.0,0.0,0.0,0.0,0.0,0.0,0.0,0.0,0.0,0.0,0.0,0.0,0.0,0.0,0.0,0.0,0.0,0.0,0.0,0.0,0.0,0.0,0.0,0.0,0.00623052959502,0.0,0.0,0.0,0.0,0.0,0.0,0.0,0.0,0.0,0.0,0.0,0.0,0.0,0.0,0.0,0.0,0.0,0.0,0.0,0.0,0.0,0.0,0.0,0.0,0.0,0.0,0.0,0.0,0.0,0.0,0.0,0.0,0.0,0.0,0.0,0.0,0.0,0.0,0.0,0.0,0.0,0.00311526479751,0.0,0.0,0.0,0.0,0.0,0.0,0.00934579439252,0.0,0.0,0.0,0.0,0.0,0.0,0.0,0.0,0.0,0.0,0.0,0.0,0.0,0.0,0.0,0.0,0.0,0.0,0.0,0.0,0.0,0.0,0.0,0.0,0.0,0.0,0.0,0.0,0.0,0.0,0.0,0.0,0.0,0.0,0.0,0.0,0.0,0.0,0.0,0.0,0.0,0.0,0.0,0.0,0.0,0.00311526479751,0.0,0.0,0.0,0.0,0.0,0.0,0.0,0.0,0.0,0.0,0.0,0.0,0.0,0.0,0.0,0.0,0.0,0.0,0.0,0.0,0.0,0.0,0.0,0.0,0.0,0.0,0.0,0.0,0.0,0.0,0.0,0.0,0.0,0.0,0.0,0.0,0.0,0.0,0.0,0.0,0.0,0.0,0.0,0.0,0.0,0.0,0.0,0.0,0.0,0.0,0.0,0.0,0.0,0.0,0.0,0.0,0.0,0.0,0.0,0.0,0.0,0.0,0.0,0.0,0.0,0.0,0.0,0.0,0.0,0.0,0.0,0.0,0.0,0.0,0.0,0.0,0.0,0.0,0.0,0.0,0.0,0.0,0.0,0.0,0.0,0.0,0.0,0.0,0.0,0.0,0.0,0.0,0.0,0.0,0.0,0.0,0.0249221183801,0.0,0.0,0.0,0.0,0.0,0.0,0.0,0.0,0.0,0.0,0.0,0.0,0.0,0.0,0.0,0.0,0.0,0.0,0.00934579439252,0.0,0.0,0.0,0.0,0.0,0.0,0.0,0.0,0.0,0.0,0.0,0.0,0.0,0.0,0.0,0.0,0.0,0.0,0.0,0.0,0.0,0.0,0.0,0.0,0.0,0.0,0.0,0.0155763239875,0.01246105919,0.0,0.0,0.0,0.0,0.0,0.00623052959502,0.0,0.0,0.0,0.0,0.0,0.0,0.00623052959502,0.0,0.0,0.0,0.0,0.00311526479751,0.0,0.0,0.00311526479751,0.0,0.0,0.0,0.0
